,block,trial,audio,Target_image,Foil_image,Target_Location,Response Time,Answer,Accuracy
0,1,1,"['rakken.wav', 'barget.wav', 'fisslin.wav', 'sumbark.wav', 'nellby.wav', 'chelad.wav']","['Picture8.png', 'Picture3.png', 'Picture5.png']","['Picture2.png', 'Picture3.png', 'Picture5.png']",left,0.9445514999997613,left,1
1,1,2,"['pakrid.wav', 'chelad.wav', 'dingep.wav', 'sumbark.wav', 'haagle.wav', 'barget.wav']","['Picture4.png', 'Picture1.png', 'Picture10.png']","['Picture8.png', 'Picture1.png', 'Picture10.png']",left,1.7807010999995327,right,0
2,1,3,"['dingep.wav', 'chelad.wav', 'haagle.wav', 'sumbark.wav', 'goorshell.wav', 'barget.wav']","['Picture1.png', 'Picture10.png', 'Picture6.png']","['Picture1.png', 'Picture9.png', 'Picture6.png']",left,2.395712200000162,right,0
3,1,4,"['haagle.wav', 'barget.wav', 'limeber.wav', 'sumbark.wav', 'jeelow.wav', 'chelad.wav']","['Picture10.png', 'Picture9.png', 'Picture7.png']","['Picture10.png', 'Picture4.png', 'Picture7.png']",left,1.9027796999998827,left,1
4,1,5,"['limeber.wav', 'barget.wav', 'rakken.wav', 'sumbark.wav', 'goorshell.wav', 'chelad.wav']","['Picture9.png', 'Picture8.png', 'Picture6.png']","['Picture9.png', 'Picture8.png', 'Picture1.png']",right,1.9806210999995528,left,0
5,1,6,"['bimdah.wav', 'barget.wav', 'pakrid.wav', 'sumbark.wav', 'rakken.wav', 'chelad.wav']","['Picture2.png', 'Picture4.png', 'Picture8.png']","['Picture2.png', 'Picture4.png', 'Picture5.png']",right,2.8021545000001424,right,1
6,1,7,"['dingep.wav', 'barget.wav', 'goorshell.wav', 'sumbark.wav', 'limeber.wav', 'chelad.wav']","['Picture1.png', 'Picture6.png', 'Picture9.png']","['Picture6.png', 'Picture1.png', 'Picture9.png']",right,2.46177280000029,right,1
7,1,8,"['bimdah.wav', 'chelad.wav', 'dingep.wav', 'sumbark.wav', 'rakken.wav', 'barget.wav']","['Picture2.png', 'Picture1.png', 'Picture8.png']","['Picture1.png', 'Picture2.png', 'Picture8.png']",left,3.9183741000006194,right,0
8,1,9,"['fisslin.wav', 'barget.wav', 'nellby.wav', 'sumbark.wav', 'bimdah.wav', 'chelad.wav']","['Picture3.png', 'Picture5.png', 'Picture2.png']","['Picture2.png', 'Picture5.png', 'Picture3.png']",right,0.48156399999970745,left,0
9,1,10,"['jeelow.wav', 'barget.wav', 'bimdah.wav', 'sumbark.wav', 'fisslin.wav', 'chelad.wav']","['Picture7.png', 'Picture2.png', 'Picture3.png']","['Picture3.png', 'Picture2.png', 'Picture7.png']",left,1.6586430999996082,left,1
10,1,11,"['nellby.wav', 'chelad.wav', 'haagle.wav', 'sumbark.wav', 'dingep.wav', 'barget.wav']","['Picture5.png', 'Picture10.png', 'Picture1.png']","['Picture5.png', 'Picture1.png', 'Picture10.png']",right,3.3433101000000534,left,0
11,1,12,"['goorshell.wav', 'chelad.wav', 'jeelow.wav', 'sumbark.wav', 'pakrid.wav', 'barget.wav']","['Picture6.png', 'Picture7.png', 'Picture4.png']","['Picture6.png', 'Picture4.png', 'Picture7.png']",right,2.854691899999125,left,0
0,2,13,"['limeber.wav', 'chelad.wav', 'goorshell.wav', 'sumbark.wav', 'haagle.wav', 'barget.wav']","['Picture9.png', 'Picture6.png', 'Picture10.png']","['Picture7.png', 'Picture6.png', 'Picture10.png']",left,2.587276899999779,left,1
1,2,14,"['pakrid.wav', 'barget.wav', 'rakken.wav', 'sumbark.wav', 'bimdah.wav', 'chelad.wav']","['Picture4.png', 'Picture8.png', 'Picture2.png']","['Picture10.png', 'Picture8.png', 'Picture2.png']",left,0.41829629999938334,left,1
2,2,15,"['fisslin.wav', 'barget.wav', 'limeber.wav', 'sumbark.wav', 'dingep.wav', 'chelad.wav']","['Picture3.png', 'Picture9.png', 'Picture1.png']","['Picture3.png', 'Picture6.png', 'Picture1.png']",left,0.8325600000007398,left,1
3,2,16,"['rakken.wav', 'chelad.wav', 'jeelow.wav', 'sumbark.wav', 'limeber.wav', 'barget.wav']","['Picture8.png', 'Picture7.png', 'Picture9.png']","['Picture8.png', 'Picture3.png', 'Picture9.png']",left,0.9897817000000941,left,1
4,2,17,"['fisslin.wav', 'barget.wav', 'rakken.wav', 'sumbark.wav', 'dingep.wav', 'chelad.wav']","['Picture3.png', 'Picture8.png', 'Picture1.png']","['Picture3.png', 'Picture8.png', 'Picture9.png']",right,0.5401810000003024,right,1
5,2,18,"['goorshell.wav', 'barget.wav', 'fisslin.wav', 'sumbark.wav', 'jeelow.wav', 'chelad.wav']","['Picture6.png', 'Picture3.png', 'Picture7.png']","['Picture6.png', 'Picture3.png', 'Picture8.png']",right,2.1780561000005036,left,0
6,2,19,"['pakrid.wav', 'barget.wav', 'nellby.wav', 'sumbark.wav', 'bimdah.wav', 'chelad.wav']","['Picture4.png', 'Picture5.png', 'Picture2.png']","['Picture5.png', 'Picture4.png', 'Picture2.png']",left,0.21275249999962398,left,1
7,2,20,"['nellby.wav', 'chelad.wav', 'bimdah.wav', 'sumbark.wav', 'pakrid.wav', 'barget.wav']","['Picture5.png', 'Picture2.png', 'Picture4.png']","['Picture2.png', 'Picture5.png', 'Picture4.png']",right,0.34064219999982015,left,0
8,2,21,"['dingep.wav', 'chelad.wav', 'nellby.wav', 'sumbark.wav', 'fisslin.wav', 'barget.wav']","['Picture1.png', 'Picture5.png', 'Picture3.png']","['Picture3.png', 'Picture5.png', 'Picture1.png']",right,0.4933322999995653,right,1
9,2,22,"['haagle.wav', 'barget.wav', 'limeber.wav', 'sumbark.wav', 'fisslin.wav', 'chelad.wav']","['Picture10.png', 'Picture9.png', 'Picture3.png']","['Picture3.png', 'Picture9.png', 'Picture10.png']",left,0.8686428999999407,left,1
10,2,23,"['bimdah.wav', 'chelad.wav', 'jeelow.wav', 'sumbark.wav', 'nellby.wav', 'barget.wav']","['Picture2.png', 'Picture7.png', 'Picture5.png']","['Picture2.png', 'Picture5.png', 'Picture7.png']",right,2.6115617999994356,right,1
11,2,24,"['jeelow.wav', 'barget.wav', 'pakrid.wav', 'sumbark.wav', 'nellby.wav', 'chelad.wav']","['Picture7.png', 'Picture4.png', 'Picture5.png']","['Picture7.png', 'Picture5.png', 'Picture4.png']",right,0.09450030000061815,right,1
0,3,25,"['bimdah.wav', 'barget.wav', 'limeber.wav', 'sumbark.wav', 'goorshell.wav', 'chelad.wav']","['Picture2.png', 'Picture9.png', 'Picture6.png']","['Picture4.png', 'Picture9.png', 'Picture6.png']",right,0.7179101000001538,right,1
1,3,26,"['fisslin.wav', 'chelad.wav', 'rakken.wav', 'sumbark.wav', 'nellby.wav', 'barget.wav']","['Picture3.png', 'Picture8.png', 'Picture5.png']","['Picture2.png', 'Picture8.png', 'Picture5.png']",left,0.3144180999997843,left,1
2,3,27,"['nellby.wav', 'barget.wav', 'pakrid.wav', 'sumbark.wav', 'limeber.wav', 'chelad.wav']","['Picture5.png', 'Picture4.png', 'Picture9.png']","['Picture5.png', 'Picture3.png', 'Picture9.png']",right,2.94637320000038,right,1
3,3,28,"['dingep.wav', 'barget.wav', 'fisslin.wav', 'sumbark.wav', 'jeelow.wav', 'chelad.wav']","['Picture1.png', 'Picture3.png', 'Picture7.png']","['Picture1.png', 'Picture5.png', 'Picture7.png']",right,0.27594480000061594,right,1
4,3,29,"['nellby.wav', 'barget.wav', 'jeelow.wav', 'sumbark.wav', 'rakken.wav', 'chelad.wav']","['Picture5.png', 'Picture7.png', 'Picture8.png']","['Picture5.png', 'Picture7.png', 'Picture3.png']",right,0.3288694000002579,right,1
5,3,30,"['goorshell.wav', 'chelad.wav', 'pakrid.wav', 'sumbark.wav', 'haagle.wav', 'barget.wav']","['Picture6.png', 'Picture4.png', 'Picture10.png']","['Picture6.png', 'Picture4.png', 'Picture2.png']",left,0.3950598000001264,left,1
6,3,31,"['pakrid.wav', 'chelad.wav', 'haagle.wav', 'sumbark.wav', 'fisslin.wav', 'barget.wav']","['Picture4.png', 'Picture10.png', 'Picture3.png']","['Picture10.png', 'Picture4.png', 'Picture3.png']",right,2.2234529999996084,right,1
7,3,32,"['haagle.wav', 'barget.wav', 'goorshell.wav', 'sumbark.wav', 'pakrid.wav', 'chelad.wav']","['Picture10.png', 'Picture6.png', 'Picture4.png']","['Picture6.png', 'Picture10.png', 'Picture4.png']",left,0.1478402000002461,left,1
8,3,33,"['rakken.wav', 'barget.wav', 'bimdah.wav', 'sumbark.wav', 'jeelow.wav', 'chelad.wav']","['Picture8.png', 'Picture2.png', 'Picture7.png']","['Picture7.png', 'Picture2.png', 'Picture8.png']",right,0.7487824999998338,right,1
9,3,34,"['goorshell.wav', 'chelad.wav', 'dingep.wav', 'sumbark.wav', 'haagle.wav', 'barget.wav']","['Picture6.png', 'Picture1.png', 'Picture10.png']","['Picture10.png', 'Picture1.png', 'Picture6.png']",left,0.5667670000002545,left,1
10,3,35,"['jeelow.wav', 'barget.wav', 'haagle.wav', 'sumbark.wav', 'goorshell.wav', 'chelad.wav']","['Picture7.png', 'Picture10.png', 'Picture6.png']","['Picture7.png', 'Picture6.png', 'Picture10.png']",left,1.17658130000018,left,1
11,3,36,"['limeber.wav', 'barget.wav', 'fisslin.wav', 'sumbark.wav', 'rakken.wav', 'chelad.wav']","['Picture9.png', 'Picture3.png', 'Picture8.png']","['Picture9.png', 'Picture8.png', 'Picture3.png']",left,0.8985019000001557,left,1
0,4,37,"['nellby.wav', 'chelad.wav', 'limeber.wav', 'sumbark.wav', 'fisslin.wav', 'barget.wav']","['Picture5.png', 'Picture9.png', 'Picture3.png']","['Picture8.png', 'Picture9.png', 'Picture3.png']",right,0.05073699999957171,right,1
1,4,38,"['pakrid.wav', 'chelad.wav', 'fisslin.wav', 'sumbark.wav', 'dingep.wav', 'barget.wav']","['Picture4.png', 'Picture3.png', 'Picture1.png']","['Picture10.png', 'Picture3.png', 'Picture1.png']",right,0.3028132999988884,right,1
2,4,39,"['goorshell.wav', 'barget.wav', 'bimdah.wav', 'sumbark.wav', 'haagle.wav', 'chelad.wav']","['Picture6.png', 'Picture2.png', 'Picture10.png']","['Picture6.png', 'Picture9.png', 'Picture10.png']",left,0.9684992000002239,left,1
3,4,40,"['dingep.wav', 'chelad.wav', 'goorshell.wav', 'sumbark.wav', 'jeelow.wav', 'barget.wav']","['Picture1.png', 'Picture6.png', 'Picture7.png']","['Picture1.png', 'Picture2.png', 'Picture7.png']",right,0.2509525000004942,right,1
4,4,41,"['bimdah.wav', 'barget.wav', 'nellby.wav', 'sumbark.wav', 'goorshell.wav', 'chelad.wav']","['Picture2.png', 'Picture5.png', 'Picture6.png']","['Picture2.png', 'Picture5.png', 'Picture1.png']",left,0.603733400001147,left,1
5,4,42,"['jeelow.wav', 'chelad.wav', 'goorshell.wav', 'sumbark.wav', 'pakrid.wav', 'barget.wav']","['Picture7.png', 'Picture6.png', 'Picture4.png']","['Picture7.png', 'Picture6.png', 'Picture5.png']",left,0.26393110000026354,left,1
6,4,43,"['haagle.wav', 'chelad.wav', 'bimdah.wav', 'sumbark.wav', 'limeber.wav', 'barget.wav']","['Picture10.png', 'Picture2.png', 'Picture9.png']","['Picture2.png', 'Picture10.png', 'Picture9.png']",left,0.6015483000010136,left,1
7,4,44,"['rakken.wav', 'barget.wav', 'nellby.wav', 'sumbark.wav', 'dingep.wav', 'chelad.wav']","['Picture8.png', 'Picture5.png', 'Picture1.png']","['Picture5.png', 'Picture8.png', 'Picture1.png']",right,0.2391380000008212,right,1
8,4,45,"['jeelow.wav', 'barget.wav', 'rakken.wav', 'sumbark.wav', 'pakrid.wav', 'chelad.wav']","['Picture7.png', 'Picture8.png', 'Picture4.png']","['Picture4.png', 'Picture8.png', 'Picture7.png']",right,2.6373377999989316,right,1
9,4,46,"['rakken.wav', 'barget.wav', 'jeelow.wav', 'sumbark.wav', 'bimdah.wav', 'chelad.wav']","['Picture8.png', 'Picture7.png', 'Picture2.png']","['Picture2.png', 'Picture7.png', 'Picture8.png']",right,0.19439210000018647,right,1
10,4,47,"['fisslin.wav', 'barget.wav', 'haagle.wav', 'sumbark.wav', 'rakken.wav', 'chelad.wav']","['Picture3.png', 'Picture10.png', 'Picture8.png']","['Picture3.png', 'Picture8.png', 'Picture10.png']",left,0.9282428000005893,left,1
11,4,48,"['limeber.wav', 'barget.wav', 'dingep.wav', 'sumbark.wav', 'bimdah.wav', 'chelad.wav']","['Picture9.png', 'Picture1.png', 'Picture2.png']","['Picture9.png', 'Picture2.png', 'Picture1.png']",left,0.2470294999984617,left,1
