,block,trial,audio,Target_image,Foil_image,Target_Location,Response_Time,Answer,Accuracy
0,1,1,"['rakken.wav', 'chelad.wav', 'fisslin.wav', 'sumbark.wav', 'nellby.wav', 'barget.wav']","['Picture8.png', 'Picture3.png', 'Picture5.png']","['Picture2.png', 'Picture3.png', 'Picture5.png']",left,4.010090199997649,left,1
1,1,2,"['pakrid.wav', 'chelad.wav', 'dingep.wav', 'sumbark.wav', 'haagle.wav', 'barget.wav']","['Picture4.png', 'Picture1.png', 'Picture10.png']","['Picture8.png', 'Picture1.png', 'Picture10.png']",left,2.194990499992855,left,1
2,1,3,"['dingep.wav', 'chelad.wav', 'haagle.wav', 'sumbark.wav', 'goorshell.wav', 'barget.wav']","['Picture1.png', 'Picture10.png', 'Picture6.png']","['Picture1.png', 'Picture9.png', 'Picture6.png']",left,0.9677552999928594,right,0
3,1,4,"['haagle.wav', 'chelad.wav', 'limeber.wav', 'sumbark.wav', 'jeelow.wav', 'barget.wav']","['Picture10.png', 'Picture9.png', 'Picture7.png']","['Picture10.png', 'Picture4.png', 'Picture7.png']",left,0.8201451000059023,right,0
4,1,5,"['limeber.wav', 'chelad.wav', 'rakken.wav', 'barget.wav', 'goorshell.wav', 'sumbark.wav']","['Picture9.png', 'Picture8.png', 'Picture6.png']","['Picture9.png', 'Picture8.png', 'Picture1.png']",right,1.9304882999276742,left,0
5,1,6,"['bimdah.wav', 'chelad.wav', 'pakrid.wav', 'barget.wav', 'rakken.wav', 'sumbark.wav']","['Picture2.png', 'Picture4.png', 'Picture8.png']","['Picture2.png', 'Picture4.png', 'Picture5.png']",right,1.1913501999806613,left,0
6,1,7,"['dingep.wav', 'chelad.wav', 'goorshell.wav', 'sumbark.wav', 'limeber.wav', 'barget.wav']","['Picture1.png', 'Picture6.png', 'Picture9.png']","['Picture6.png', 'Picture1.png', 'Picture9.png']",right,3.6282923000399023,right,1
7,1,8,"['bimdah.wav', 'chelad.wav', 'dingep.wav', 'barget.wav', 'rakken.wav', 'sumbark.wav']","['Picture2.png', 'Picture1.png', 'Picture8.png']","['Picture1.png', 'Picture2.png', 'Picture8.png']",left,8.288133499911055,right,0
8,1,9,"['fisslin.wav', 'chelad.wav', 'nellby.wav', 'sumbark.wav', 'bimdah.wav', 'barget.wav']","['Picture3.png', 'Picture5.png', 'Picture2.png']","['Picture2.png', 'Picture5.png', 'Picture3.png']",right,0.9295572000555694,right,1
9,1,10,"['jeelow.wav', 'chelad.wav', 'bimdah.wav', 'barget.wav', 'fisslin.wav', 'sumbark.wav']","['Picture7.png', 'Picture2.png', 'Picture3.png']","['Picture3.png', 'Picture2.png', 'Picture7.png']",left,3.8984396000159904,right,0
10,1,11,"['nellby.wav', 'chelad.wav', 'haagle.wav', 'barget.wav', 'dingep.wav', 'sumbark.wav']","['Picture5.png', 'Picture10.png', 'Picture1.png']","['Picture5.png', 'Picture1.png', 'Picture10.png']",right,2.695638999924995,left,0
11,1,12,"['goorshell.wav', 'chelad.wav', 'jeelow.wav', 'barget.wav', 'pakrid.wav', 'sumbark.wav']","['Picture6.png', 'Picture7.png', 'Picture4.png']","['Picture6.png', 'Picture4.png', 'Picture7.png']",right,1.1276453000027686,left,0
0,2,13,"['limeber.wav', 'chelad.wav', 'goorshell.wav', 'barget.wav', 'haagle.wav', 'sumbark.wav']","['Picture9.png', 'Picture6.png', 'Picture10.png']","['Picture7.png', 'Picture6.png', 'Picture10.png']",left,1.9457522000884637,right,0
1,2,14,"['pakrid.wav', 'chelad.wav', 'rakken.wav', 'sumbark.wav', 'bimdah.wav', 'barget.wav']","['Picture4.png', 'Picture8.png', 'Picture2.png']","['Picture10.png', 'Picture8.png', 'Picture2.png']",left,1.927375499974005,left,1
2,2,15,"['fisslin.wav', 'chelad.wav', 'limeber.wav', 'sumbark.wav', 'dingep.wav', 'barget.wav']","['Picture3.png', 'Picture9.png', 'Picture1.png']","['Picture3.png', 'Picture6.png', 'Picture1.png']",left,4.7491171000292525,left,1
3,2,16,"['rakken.wav', 'chelad.wav', 'jeelow.wav', 'barget.wav', 'limeber.wav', 'sumbark.wav']","['Picture8.png', 'Picture7.png', 'Picture9.png']","['Picture8.png', 'Picture3.png', 'Picture9.png']",left,1.4804672999307513,right,0
4,2,17,"['fisslin.wav', 'chelad.wav', 'rakken.wav', 'barget.wav', 'dingep.wav', 'sumbark.wav']","['Picture3.png', 'Picture8.png', 'Picture1.png']","['Picture3.png', 'Picture8.png', 'Picture9.png']",right,1.3049365000333637,left,0
5,2,18,"['goorshell.wav', 'chelad.wav', 'fisslin.wav', 'sumbark.wav', 'jeelow.wav', 'barget.wav']","['Picture6.png', 'Picture3.png', 'Picture7.png']","['Picture6.png', 'Picture3.png', 'Picture8.png']",right,2.4548803000943735,right,1
6,2,19,"['pakrid.wav', 'chelad.wav', 'nellby.wav', 'barget.wav', 'bimdah.wav', 'sumbark.wav']","['Picture4.png', 'Picture5.png', 'Picture2.png']","['Picture5.png', 'Picture4.png', 'Picture2.png']",left,1.3135315999388695,left,1
7,2,20,"['nellby.wav', 'chelad.wav', 'bimdah.wav', 'sumbark.wav', 'pakrid.wav', 'barget.wav']","['Picture5.png', 'Picture2.png', 'Picture4.png']","['Picture2.png', 'Picture5.png', 'Picture4.png']",right,2.9338133999845013,right,1
8,2,21,"['dingep.wav', 'chelad.wav', 'nellby.wav', 'sumbark.wav', 'fisslin.wav', 'barget.wav']","['Picture1.png', 'Picture5.png', 'Picture3.png']","['Picture3.png', 'Picture5.png', 'Picture1.png']",right,2.799177599954419,left,0
9,2,22,"['haagle.wav', 'chelad.wav', 'limeber.wav', 'sumbark.wav', 'fisslin.wav', 'barget.wav']","['Picture10.png', 'Picture9.png', 'Picture3.png']","['Picture3.png', 'Picture9.png', 'Picture10.png']",left,3.6042889000382274,left,1
10,2,23,"['bimdah.wav', 'chelad.wav', 'jeelow.wav', 'sumbark.wav', 'nellby.wav', 'barget.wav']","['Picture2.png', 'Picture7.png', 'Picture5.png']","['Picture2.png', 'Picture5.png', 'Picture7.png']",right,1.1126224000472575,left,0
11,2,24,"['jeelow.wav', 'chelad.wav', 'pakrid.wav', 'barget.wav', 'nellby.wav', 'sumbark.wav']","['Picture7.png', 'Picture4.png', 'Picture5.png']","['Picture7.png', 'Picture5.png', 'Picture4.png']",right,7.392574999947101,left,0
0,3,25,"['bimdah.wav', 'chelad.wav', 'limeber.wav', 'sumbark.wav', 'goorshell.wav', 'barget.wav']","['Picture2.png', 'Picture9.png', 'Picture6.png']","['Picture4.png', 'Picture9.png', 'Picture6.png']",right,2.633219899958931,right,1
1,3,26,"['fisslin.wav', 'chelad.wav', 'rakken.wav', 'sumbark.wav', 'nellby.wav', 'barget.wav']","['Picture3.png', 'Picture8.png', 'Picture5.png']","['Picture2.png', 'Picture8.png', 'Picture5.png']",left,0.8867273998912424,left,1
2,3,27,"['nellby.wav', 'chelad.wav', 'pakrid.wav', 'sumbark.wav', 'limeber.wav', 'barget.wav']","['Picture5.png', 'Picture4.png', 'Picture9.png']","['Picture5.png', 'Picture3.png', 'Picture9.png']",right,0.697090300032869,left,0
3,3,28,"['dingep.wav', 'chelad.wav', 'fisslin.wav', 'sumbark.wav', 'jeelow.wav', 'barget.wav']","['Picture1.png', 'Picture3.png', 'Picture7.png']","['Picture1.png', 'Picture5.png', 'Picture7.png']",right,0.4179993000579998,right,1
4,3,29,"['nellby.wav', 'chelad.wav', 'jeelow.wav', 'barget.wav', 'rakken.wav', 'sumbark.wav']","['Picture5.png', 'Picture7.png', 'Picture8.png']","['Picture5.png', 'Picture7.png', 'Picture3.png']",right,1.7359636999899521,right,1
5,3,30,"['goorshell.wav', 'chelad.wav', 'pakrid.wav', 'barget.wav', 'haagle.wav', 'sumbark.wav']","['Picture6.png', 'Picture4.png', 'Picture10.png']","['Picture6.png', 'Picture4.png', 'Picture2.png']",left,0.19347969989757985,left,1
6,3,31,"['pakrid.wav', 'chelad.wav', 'haagle.wav', 'barget.wav', 'fisslin.wav', 'sumbark.wav']","['Picture4.png', 'Picture10.png', 'Picture3.png']","['Picture10.png', 'Picture4.png', 'Picture3.png']",right,0.251272700028494,right,1
7,3,32,"['haagle.wav', 'chelad.wav', 'goorshell.wav', 'sumbark.wav', 'pakrid.wav', 'barget.wav']","['Picture10.png', 'Picture6.png', 'Picture4.png']","['Picture6.png', 'Picture10.png', 'Picture4.png']",left,0.5593762000789866,left,1
8,3,33,"['rakken.wav', 'chelad.wav', 'bimdah.wav', 'barget.wav', 'jeelow.wav', 'sumbark.wav']","['Picture8.png', 'Picture2.png', 'Picture7.png']","['Picture7.png', 'Picture2.png', 'Picture8.png']",right,0.3507266999222338,right,1
9,3,34,"['goorshell.wav', 'chelad.wav', 'dingep.wav', 'sumbark.wav', 'haagle.wav', 'barget.wav']","['Picture6.png', 'Picture1.png', 'Picture10.png']","['Picture10.png', 'Picture1.png', 'Picture6.png']",left,0.5473761999746785,left,1
10,3,35,"['jeelow.wav', 'chelad.wav', 'haagle.wav', 'sumbark.wav', 'goorshell.wav', 'barget.wav']","['Picture7.png', 'Picture10.png', 'Picture6.png']","['Picture7.png', 'Picture6.png', 'Picture10.png']",left,1.4627705999882892,right,0
11,3,36,"['limeber.wav', 'chelad.wav', 'fisslin.wav', 'barget.wav', 'rakken.wav', 'sumbark.wav']","['Picture9.png', 'Picture3.png', 'Picture8.png']","['Picture9.png', 'Picture8.png', 'Picture3.png']",left,0.6051843999885023,left,1
0,4,37,"['nellby.wav', 'chelad.wav', 'limeber.wav', 'barget.wav', 'fisslin.wav', 'sumbark.wav']","['Picture5.png', 'Picture9.png', 'Picture3.png']","['Picture8.png', 'Picture9.png', 'Picture3.png']",right,0.8892777999863029,right,1
1,4,38,"['pakrid.wav', 'chelad.wav', 'fisslin.wav', 'barget.wav', 'dingep.wav', 'sumbark.wav']","['Picture4.png', 'Picture3.png', 'Picture1.png']","['Picture10.png', 'Picture3.png', 'Picture1.png']",right,0.6322825000388548,right,1
2,4,39,"['goorshell.wav', 'chelad.wav', 'bimdah.wav', 'sumbark.wav', 'haagle.wav', 'barget.wav']","['Picture6.png', 'Picture2.png', 'Picture10.png']","['Picture6.png', 'Picture9.png', 'Picture10.png']",left,1.8352910000830889,left,1
3,4,40,"['dingep.wav', 'chelad.wav', 'goorshell.wav', 'sumbark.wav', 'jeelow.wav', 'barget.wav']","['Picture1.png', 'Picture6.png', 'Picture7.png']","['Picture1.png', 'Picture2.png', 'Picture7.png']",right,2.9657405999023467,left,0
4,4,41,"['bimdah.wav', 'chelad.wav', 'nellby.wav', 'sumbark.wav', 'goorshell.wav', 'barget.wav']","['Picture2.png', 'Picture5.png', 'Picture6.png']","['Picture2.png', 'Picture5.png', 'Picture1.png']",left,0.752917299978435,left,1
5,4,42,"['jeelow.wav', 'chelad.wav', 'goorshell.wav', 'sumbark.wav', 'pakrid.wav', 'barget.wav']","['Picture7.png', 'Picture6.png', 'Picture4.png']","['Picture7.png', 'Picture6.png', 'Picture5.png']",left,0.7901272000744939,left,1
6,4,43,"['haagle.wav', 'chelad.wav', 'bimdah.wav', 'barget.wav', 'limeber.wav', 'sumbark.wav']","['Picture10.png', 'Picture2.png', 'Picture9.png']","['Picture2.png', 'Picture10.png', 'Picture9.png']",left,0.5987908000824973,left,1
7,4,44,"['rakken.wav', 'chelad.wav', 'nellby.wav', 'sumbark.wav', 'dingep.wav', 'barget.wav']","['Picture8.png', 'Picture5.png', 'Picture1.png']","['Picture5.png', 'Picture8.png', 'Picture1.png']",right,0.6387699999613687,right,1
8,4,45,"['jeelow.wav', 'chelad.wav', 'rakken.wav', 'barget.wav', 'pakrid.wav', 'sumbark.wav']","['Picture7.png', 'Picture8.png', 'Picture4.png']","['Picture4.png', 'Picture8.png', 'Picture7.png']",right,0.48771559994202107,right,1
9,4,46,"['rakken.wav', 'chelad.wav', 'jeelow.wav', 'barget.wav', 'bimdah.wav', 'sumbark.wav']","['Picture8.png', 'Picture7.png', 'Picture2.png']","['Picture2.png', 'Picture7.png', 'Picture8.png']",right,0.500396899995394,right,1
10,4,47,"['fisslin.wav', 'chelad.wav', 'haagle.wav', 'sumbark.wav', 'rakken.wav', 'barget.wav']","['Picture3.png', 'Picture10.png', 'Picture8.png']","['Picture3.png', 'Picture8.png', 'Picture10.png']",left,4.053434900008142,left,1
11,4,48,"['limeber.wav', 'chelad.wav', 'dingep.wav', 'sumbark.wav', 'bimdah.wav', 'barget.wav']","['Picture9.png', 'Picture1.png', 'Picture2.png']","['Picture9.png', 'Picture2.png', 'Picture1.png']",left,0.7816338000120595,right,0
