,block,trial,audio,Target_image,Foil_image,Target_Location,Response_Time,Answer,Accuracy
0,1,1,"['rakken.wav', 'barget.wav', 'fisslin.wav', 'sumbark.wav', 'nellby.wav', 'chelad.wav']","['Picture8.png', 'Picture3.png', 'Picture5.png']","['Picture2.png', 'Picture3.png', 'Picture5.png']",left,0.8387889000587165,right,0
1,1,2,"['pakrid.wav', 'chelad.wav', 'dingep.wav', 'sumbark.wav', 'haagle.wav', 'barget.wav']","['Picture4.png', 'Picture1.png', 'Picture10.png']","['Picture8.png', 'Picture1.png', 'Picture10.png']",left,2.3671507999533787,left,1
2,1,3,"['dingep.wav', 'chelad.wav', 'haagle.wav', 'sumbark.wav', 'goorshell.wav', 'barget.wav']","['Picture1.png', 'Picture10.png', 'Picture6.png']","['Picture1.png', 'Picture9.png', 'Picture6.png']",left,1.1276824999367818,right,0
3,1,4,"['haagle.wav', 'barget.wav', 'limeber.wav', 'sumbark.wav', 'jeelow.wav', 'chelad.wav']","['Picture10.png', 'Picture9.png', 'Picture7.png']","['Picture10.png', 'Picture4.png', 'Picture7.png']",left,0.3177632000297308,right,0
4,1,5,"['limeber.wav', 'barget.wav', 'rakken.wav', 'sumbark.wav', 'goorshell.wav', 'chelad.wav']","['Picture9.png', 'Picture8.png', 'Picture6.png']","['Picture9.png', 'Picture8.png', 'Picture1.png']",right,0.33968540001660585,left,0
5,1,6,"['bimdah.wav', 'barget.wav', 'pakrid.wav', 'sumbark.wav', 'rakken.wav', 'chelad.wav']","['Picture2.png', 'Picture4.png', 'Picture8.png']","['Picture2.png', 'Picture4.png', 'Picture5.png']",right,1.2685380999464542,left,0
6,1,7,"['dingep.wav', 'barget.wav', 'goorshell.wav', 'sumbark.wav', 'limeber.wav', 'chelad.wav']","['Picture1.png', 'Picture6.png', 'Picture9.png']","['Picture6.png', 'Picture1.png', 'Picture9.png']",right,0.46063979994505644,right,1
7,1,8,"['bimdah.wav', 'chelad.wav', 'dingep.wav', 'sumbark.wav', 'rakken.wav', 'barget.wav']","['Picture2.png', 'Picture1.png', 'Picture8.png']","['Picture1.png', 'Picture2.png', 'Picture8.png']",left,0.6468835000414401,left,1
8,1,9,"['fisslin.wav', 'barget.wav', 'nellby.wav', 'sumbark.wav', 'bimdah.wav', 'chelad.wav']","['Picture3.png', 'Picture5.png', 'Picture2.png']","['Picture2.png', 'Picture5.png', 'Picture3.png']",right,0.10570479999296367,right,1
9,1,10,"['jeelow.wav', 'barget.wav', 'bimdah.wav', 'sumbark.wav', 'fisslin.wav', 'chelad.wav']","['Picture7.png', 'Picture2.png', 'Picture3.png']","['Picture3.png', 'Picture2.png', 'Picture7.png']",left,0.5198508000466973,right,0
10,1,11,"['nellby.wav', 'chelad.wav', 'haagle.wav', 'sumbark.wav', 'dingep.wav', 'barget.wav']","['Picture5.png', 'Picture10.png', 'Picture1.png']","['Picture5.png', 'Picture1.png', 'Picture10.png']",right,0.8078218000009656,right,1
11,1,12,"['goorshell.wav', 'chelad.wav', 'jeelow.wav', 'sumbark.wav', 'pakrid.wav', 'barget.wav']","['Picture6.png', 'Picture7.png', 'Picture4.png']","['Picture6.png', 'Picture4.png', 'Picture7.png']",right,0.5230438000289723,left,0
0,2,13,"['limeber.wav', 'chelad.wav', 'goorshell.wav', 'sumbark.wav', 'haagle.wav', 'barget.wav']","['Picture9.png', 'Picture6.png', 'Picture10.png']","['Picture7.png', 'Picture6.png', 'Picture10.png']",left,2.867983300006017,left,1
1,2,14,"['pakrid.wav', 'barget.wav', 'rakken.wav', 'sumbark.wav', 'bimdah.wav', 'chelad.wav']","['Picture4.png', 'Picture8.png', 'Picture2.png']","['Picture10.png', 'Picture8.png', 'Picture2.png']",left,1.4510668000439182,left,1
2,2,15,"['fisslin.wav', 'barget.wav', 'limeber.wav', 'sumbark.wav', 'dingep.wav', 'chelad.wav']","['Picture3.png', 'Picture9.png', 'Picture1.png']","['Picture3.png', 'Picture6.png', 'Picture1.png']",left,0.2187071000225842,right,0
3,2,16,"['rakken.wav', 'chelad.wav', 'jeelow.wav', 'sumbark.wav', 'limeber.wav', 'barget.wav']","['Picture8.png', 'Picture7.png', 'Picture9.png']","['Picture8.png', 'Picture3.png', 'Picture9.png']",left,0.6366881000576541,left,1
4,2,17,"['fisslin.wav', 'barget.wav', 'rakken.wav', 'sumbark.wav', 'dingep.wav', 'chelad.wav']","['Picture3.png', 'Picture8.png', 'Picture1.png']","['Picture3.png', 'Picture8.png', 'Picture9.png']",right,0.1840101000852883,right,1
5,2,18,"['goorshell.wav', 'barget.wav', 'fisslin.wav', 'sumbark.wav', 'jeelow.wav', 'chelad.wav']","['Picture6.png', 'Picture3.png', 'Picture7.png']","['Picture6.png', 'Picture3.png', 'Picture8.png']",right,0.4361004000529647,right,1
6,2,19,"['pakrid.wav', 'barget.wav', 'nellby.wav', 'sumbark.wav', 'bimdah.wav', 'chelad.wav']","['Picture4.png', 'Picture5.png', 'Picture2.png']","['Picture5.png', 'Picture4.png', 'Picture2.png']",left,0.10272389999590814,left,1
7,2,20,"['nellby.wav', 'chelad.wav', 'bimdah.wav', 'sumbark.wav', 'pakrid.wav', 'barget.wav']","['Picture5.png', 'Picture2.png', 'Picture4.png']","['Picture2.png', 'Picture5.png', 'Picture4.png']",right,0.672432699939236,right,1
8,2,21,"['dingep.wav', 'chelad.wav', 'nellby.wav', 'sumbark.wav', 'fisslin.wav', 'barget.wav']","['Picture1.png', 'Picture5.png', 'Picture3.png']","['Picture3.png', 'Picture5.png', 'Picture1.png']",right,0.8751698000123724,left,0
9,2,22,"['haagle.wav', 'barget.wav', 'limeber.wav', 'sumbark.wav', 'fisslin.wav', 'chelad.wav']","['Picture10.png', 'Picture9.png', 'Picture3.png']","['Picture3.png', 'Picture9.png', 'Picture10.png']",left,0.8734958000713959,right,0
10,2,23,"['bimdah.wav', 'chelad.wav', 'jeelow.wav', 'sumbark.wav', 'nellby.wav', 'barget.wav']","['Picture2.png', 'Picture7.png', 'Picture5.png']","['Picture2.png', 'Picture5.png', 'Picture7.png']",right,1.1847750999731943,left,0
11,2,24,"['jeelow.wav', 'barget.wav', 'pakrid.wav', 'sumbark.wav', 'nellby.wav', 'chelad.wav']","['Picture7.png', 'Picture4.png', 'Picture5.png']","['Picture7.png', 'Picture5.png', 'Picture4.png']",right,0.17682380008045584,left,0
0,3,25,"['bimdah.wav', 'barget.wav', 'limeber.wav', 'sumbark.wav', 'goorshell.wav', 'chelad.wav']","['Picture2.png', 'Picture9.png', 'Picture6.png']","['Picture4.png', 'Picture9.png', 'Picture6.png']",right,0.2347406999906525,left,0
1,3,26,"['fisslin.wav', 'chelad.wav', 'rakken.wav', 'sumbark.wav', 'nellby.wav', 'barget.wav']","['Picture3.png', 'Picture8.png', 'Picture5.png']","['Picture2.png', 'Picture8.png', 'Picture5.png']",left,0.6313640000298619,right,0
2,3,27,"['nellby.wav', 'barget.wav', 'pakrid.wav', 'sumbark.wav', 'limeber.wav', 'chelad.wav']","['Picture5.png', 'Picture4.png', 'Picture9.png']","['Picture5.png', 'Picture3.png', 'Picture9.png']",right,0.6522817999357358,left,0
3,3,28,"['dingep.wav', 'barget.wav', 'fisslin.wav', 'sumbark.wav', 'jeelow.wav', 'chelad.wav']","['Picture1.png', 'Picture3.png', 'Picture7.png']","['Picture1.png', 'Picture5.png', 'Picture7.png']",right,0.40400370000861585,right,1
4,3,29,"['nellby.wav', 'barget.wav', 'jeelow.wav', 'sumbark.wav', 'rakken.wav', 'chelad.wav']","['Picture5.png', 'Picture7.png', 'Picture8.png']","['Picture5.png', 'Picture7.png', 'Picture3.png']",right,0.6053880000254139,left,0
5,3,30,"['goorshell.wav', 'chelad.wav', 'pakrid.wav', 'sumbark.wav', 'haagle.wav', 'barget.wav']","['Picture6.png', 'Picture4.png', 'Picture10.png']","['Picture6.png', 'Picture4.png', 'Picture2.png']",left,1.1256713999900967,right,0
6,3,31,"['pakrid.wav', 'chelad.wav', 'haagle.wav', 'sumbark.wav', 'fisslin.wav', 'barget.wav']","['Picture4.png', 'Picture10.png', 'Picture3.png']","['Picture10.png', 'Picture4.png', 'Picture3.png']",right,0.9082514999900013,left,0
7,3,32,"['haagle.wav', 'barget.wav', 'goorshell.wav', 'sumbark.wav', 'pakrid.wav', 'chelad.wav']","['Picture10.png', 'Picture6.png', 'Picture4.png']","['Picture6.png', 'Picture10.png', 'Picture4.png']",left,0.1788366000400856,right,0
8,3,33,"['rakken.wav', 'barget.wav', 'bimdah.wav', 'sumbark.wav', 'jeelow.wav', 'chelad.wav']","['Picture8.png', 'Picture2.png', 'Picture7.png']","['Picture7.png', 'Picture2.png', 'Picture8.png']",right,0.2002708000363782,left,0
9,3,34,"['goorshell.wav', 'chelad.wav', 'dingep.wav', 'sumbark.wav', 'haagle.wav', 'barget.wav']","['Picture6.png', 'Picture1.png', 'Picture10.png']","['Picture10.png', 'Picture1.png', 'Picture6.png']",left,0.768335499917157,right,0
10,3,35,"['jeelow.wav', 'barget.wav', 'haagle.wav', 'sumbark.wav', 'goorshell.wav', 'chelad.wav']","['Picture7.png', 'Picture10.png', 'Picture6.png']","['Picture7.png', 'Picture6.png', 'Picture10.png']",left,0.540116099989973,left,1
11,3,36,"['limeber.wav', 'barget.wav', 'fisslin.wav', 'sumbark.wav', 'rakken.wav', 'chelad.wav']","['Picture9.png', 'Picture3.png', 'Picture8.png']","['Picture9.png', 'Picture8.png', 'Picture3.png']",left,0.28412399999797344,right,0
0,4,37,"['nellby.wav', 'chelad.wav', 'limeber.wav', 'sumbark.wav', 'fisslin.wav', 'barget.wav']","['Picture5.png', 'Picture9.png', 'Picture3.png']","['Picture8.png', 'Picture9.png', 'Picture3.png']",right,3.385420100064948,right,1
1,4,38,"['pakrid.wav', 'chelad.wav', 'fisslin.wav', 'sumbark.wav', 'dingep.wav', 'barget.wav']","['Picture4.png', 'Picture3.png', 'Picture1.png']","['Picture10.png', 'Picture3.png', 'Picture1.png']",right,0.6759069999679923,left,0
2,4,39,"['goorshell.wav', 'barget.wav', 'bimdah.wav', 'sumbark.wav', 'haagle.wav', 'chelad.wav']","['Picture6.png', 'Picture2.png', 'Picture10.png']","['Picture6.png', 'Picture9.png', 'Picture10.png']",left,0.21965120011009276,right,0
3,4,40,"['dingep.wav', 'chelad.wav', 'goorshell.wav', 'sumbark.wav', 'jeelow.wav', 'barget.wav']","['Picture1.png', 'Picture6.png', 'Picture7.png']","['Picture1.png', 'Picture2.png', 'Picture7.png']",right,0.8688835999928415,left,0
4,4,41,"['bimdah.wav', 'barget.wav', 'nellby.wav', 'sumbark.wav', 'goorshell.wav', 'chelad.wav']","['Picture2.png', 'Picture5.png', 'Picture6.png']","['Picture2.png', 'Picture5.png', 'Picture1.png']",left,0.15591370000038296,right,0
5,4,42,"['jeelow.wav', 'chelad.wav', 'goorshell.wav', 'sumbark.wav', 'pakrid.wav', 'barget.wav']","['Picture7.png', 'Picture6.png', 'Picture4.png']","['Picture7.png', 'Picture6.png', 'Picture5.png']",left,0.787760499981232,left,1
6,4,43,"['haagle.wav', 'chelad.wav', 'bimdah.wav', 'sumbark.wav', 'limeber.wav', 'barget.wav']","['Picture10.png', 'Picture2.png', 'Picture9.png']","['Picture2.png', 'Picture10.png', 'Picture9.png']",left,0.7321694999700412,right,0
7,4,44,"['rakken.wav', 'barget.wav', 'nellby.wav', 'sumbark.wav', 'dingep.wav', 'chelad.wav']","['Picture8.png', 'Picture5.png', 'Picture1.png']","['Picture5.png', 'Picture8.png', 'Picture1.png']",right,0.3603224999969825,left,0
8,4,45,"['jeelow.wav', 'barget.wav', 'rakken.wav', 'sumbark.wav', 'pakrid.wav', 'chelad.wav']","['Picture7.png', 'Picture8.png', 'Picture4.png']","['Picture4.png', 'Picture8.png', 'Picture7.png']",right,0.100989899947308,right,1
9,4,46,"['rakken.wav', 'barget.wav', 'jeelow.wav', 'sumbark.wav', 'bimdah.wav', 'chelad.wav']","['Picture8.png', 'Picture7.png', 'Picture2.png']","['Picture2.png', 'Picture7.png', 'Picture8.png']",right,0.7359674000181258,left,0
10,4,47,"['fisslin.wav', 'barget.wav', 'haagle.wav', 'sumbark.wav', 'rakken.wav', 'chelad.wav']","['Picture3.png', 'Picture10.png', 'Picture8.png']","['Picture3.png', 'Picture8.png', 'Picture10.png']",left,0.3883343000197783,right,0
11,4,48,"['limeber.wav', 'barget.wav', 'dingep.wav', 'sumbark.wav', 'bimdah.wav', 'chelad.wav']","['Picture9.png', 'Picture1.png', 'Picture2.png']","['Picture9.png', 'Picture2.png', 'Picture1.png']",left,0.9043776000617072,left,1
