,block,trial,audio,Target_image,Foil_image,Target_Location,Response_Time,Answer,Accuracy
0,1,1,"['rakken.wav', 'chelad.wav', 'fisslin.wav', 'sumbark.wav', 'nellby.wav', 'barget.wav']","['Picture8.png', 'Picture3.png', 'Picture5.png']","['Picture2.png', 'Picture3.png', 'Picture5.png']",left,1.2453299999469891,right,0
1,1,2,"['pakrid.wav', 'sumbark.wav', 'dingep.wav', 'chelad.wav', 'haagle.wav', 'barget.wav']","['Picture4.png', 'Picture1.png', 'Picture10.png']","['Picture8.png', 'Picture1.png', 'Picture10.png']",left,0.54331820004154,right,0
2,1,3,"['dingep.wav', 'chelad.wav', 'haagle.wav', 'sumbark.wav', 'goorshell.wav', 'barget.wav']","['Picture1.png', 'Picture10.png', 'Picture6.png']","['Picture1.png', 'Picture9.png', 'Picture6.png']",left,1.4964753999374807,left,1
3,1,4,"['haagle.wav', 'sumbark.wav', 'limeber.wav', 'chelad.wav', 'jeelow.wav', 'barget.wav']","['Picture10.png', 'Picture9.png', 'Picture7.png']","['Picture10.png', 'Picture4.png', 'Picture7.png']",left,2.1199984999839216,left,1
4,1,5,"['limeber.wav', 'sumbark.wav', 'rakken.wav', 'chelad.wav', 'goorshell.wav', 'barget.wav']","['Picture9.png', 'Picture8.png', 'Picture6.png']","['Picture9.png', 'Picture8.png', 'Picture1.png']",right,0.7320744000608101,right,1
5,1,6,"['bimdah.wav', 'sumbark.wav', 'pakrid.wav', 'chelad.wav', 'rakken.wav', 'barget.wav']","['Picture2.png', 'Picture4.png', 'Picture8.png']","['Picture2.png', 'Picture4.png', 'Picture5.png']",right,0.2936392000410706,left,0
6,1,7,"['dingep.wav', 'sumbark.wav', 'goorshell.wav', 'chelad.wav', 'limeber.wav', 'barget.wav']","['Picture1.png', 'Picture6.png', 'Picture9.png']","['Picture6.png', 'Picture1.png', 'Picture9.png']",right,2.1534587999340147,left,0
7,1,8,"['bimdah.wav', 'chelad.wav', 'dingep.wav', 'sumbark.wav', 'rakken.wav', 'barget.wav']","['Picture2.png', 'Picture1.png', 'Picture8.png']","['Picture1.png', 'Picture2.png', 'Picture8.png']",left,0.23579579999204725,right,0
8,1,9,"['fisslin.wav', 'sumbark.wav', 'nellby.wav', 'chelad.wav', 'bimdah.wav', 'barget.wav']","['Picture3.png', 'Picture5.png', 'Picture2.png']","['Picture2.png', 'Picture5.png', 'Picture3.png']",right,3.9850796000100672,left,0
9,1,10,"['jeelow.wav', 'sumbark.wav', 'bimdah.wav', 'chelad.wav', 'fisslin.wav', 'barget.wav']","['Picture7.png', 'Picture2.png', 'Picture3.png']","['Picture3.png', 'Picture2.png', 'Picture7.png']",left,0.40320279996376485,right,0
10,1,11,"['nellby.wav', 'sumbark.wav', 'haagle.wav', 'chelad.wav', 'dingep.wav', 'barget.wav']","['Picture5.png', 'Picture10.png', 'Picture1.png']","['Picture5.png', 'Picture1.png', 'Picture10.png']",right,0.22744350007269531,left,0
11,1,12,"['goorshell.wav', 'chelad.wav', 'jeelow.wav', 'sumbark.wav', 'pakrid.wav', 'barget.wav']","['Picture6.png', 'Picture7.png', 'Picture4.png']","['Picture6.png', 'Picture4.png', 'Picture7.png']",right,1.7968662000494078,left,0
0,2,13,"['limeber.wav', 'chelad.wav', 'goorshell.wav', 'sumbark.wav', 'haagle.wav', 'barget.wav']","['Picture9.png', 'Picture6.png', 'Picture10.png']","['Picture7.png', 'Picture6.png', 'Picture10.png']",left,1.5558630001032725,left,1
1,2,14,"['pakrid.wav', 'sumbark.wav', 'rakken.wav', 'chelad.wav', 'bimdah.wav', 'barget.wav']","['Picture4.png', 'Picture8.png', 'Picture2.png']","['Picture10.png', 'Picture8.png', 'Picture2.png']",left,0.29266589996404946,left,1
2,2,15,"['fisslin.wav', 'sumbark.wav', 'limeber.wav', 'chelad.wav', 'dingep.wav', 'barget.wav']","['Picture3.png', 'Picture9.png', 'Picture1.png']","['Picture3.png', 'Picture6.png', 'Picture1.png']",left,0.34952759998850524,left,1
3,2,16,"['rakken.wav', 'chelad.wav', 'jeelow.wav', 'sumbark.wav', 'limeber.wav', 'barget.wav']","['Picture8.png', 'Picture7.png', 'Picture9.png']","['Picture8.png', 'Picture3.png', 'Picture9.png']",left,0.0910944000352174,left,1
4,2,17,"['fisslin.wav', 'chelad.wav', 'rakken.wav', 'sumbark.wav', 'dingep.wav', 'barget.wav']","['Picture3.png', 'Picture8.png', 'Picture1.png']","['Picture3.png', 'Picture8.png', 'Picture9.png']",right,1.0653594000032172,right,1
5,2,18,"['goorshell.wav', 'chelad.wav', 'fisslin.wav', 'sumbark.wav', 'jeelow.wav', 'barget.wav']","['Picture6.png', 'Picture3.png', 'Picture7.png']","['Picture6.png', 'Picture3.png', 'Picture8.png']",right,0.050661300076171756,right,1
6,2,19,"['pakrid.wav', 'sumbark.wav', 'nellby.wav', 'chelad.wav', 'bimdah.wav', 'barget.wav']","['Picture4.png', 'Picture5.png', 'Picture2.png']","['Picture5.png', 'Picture4.png', 'Picture2.png']",left,0.13257050001993775,left,1
7,2,20,"['nellby.wav', 'chelad.wav', 'bimdah.wav', 'sumbark.wav', 'pakrid.wav', 'barget.wav']","['Picture5.png', 'Picture2.png', 'Picture4.png']","['Picture2.png', 'Picture5.png', 'Picture4.png']",right,0.18215829995460808,right,1
8,2,21,"['dingep.wav', 'chelad.wav', 'nellby.wav', 'sumbark.wav', 'fisslin.wav', 'barget.wav']","['Picture1.png', 'Picture5.png', 'Picture3.png']","['Picture3.png', 'Picture5.png', 'Picture1.png']",right,0.005055799963884056,right,1
9,2,22,"['haagle.wav', 'sumbark.wav', 'limeber.wav', 'chelad.wav', 'fisslin.wav', 'barget.wav']","['Picture10.png', 'Picture9.png', 'Picture3.png']","['Picture3.png', 'Picture9.png', 'Picture10.png']",left,0.13962919998448342,left,1
10,2,23,"['bimdah.wav', 'chelad.wav', 'jeelow.wav', 'sumbark.wav', 'nellby.wav', 'barget.wav']","['Picture2.png', 'Picture7.png', 'Picture5.png']","['Picture2.png', 'Picture5.png', 'Picture7.png']",right,1.1073523999657482,right,1
11,2,24,"['jeelow.wav', 'chelad.wav', 'pakrid.wav', 'sumbark.wav', 'nellby.wav', 'barget.wav']","['Picture7.png', 'Picture4.png', 'Picture5.png']","['Picture7.png', 'Picture5.png', 'Picture4.png']",right,0.12829410005360842,right,1
0,3,25,"['bimdah.wav', 'chelad.wav', 'limeber.wav', 'sumbark.wav', 'goorshell.wav', 'barget.wav']","['Picture2.png', 'Picture9.png', 'Picture6.png']","['Picture4.png', 'Picture9.png', 'Picture6.png']",right,0.11664829996880144,right,1
1,3,26,"['fisslin.wav', 'sumbark.wav', 'rakken.wav', 'chelad.wav', 'nellby.wav', 'barget.wav']","['Picture3.png', 'Picture8.png', 'Picture5.png']","['Picture2.png', 'Picture8.png', 'Picture5.png']",left,0.17832730000372976,left,1
2,3,27,"['nellby.wav', 'sumbark.wav', 'pakrid.wav', 'chelad.wav', 'limeber.wav', 'barget.wav']","['Picture5.png', 'Picture4.png', 'Picture9.png']","['Picture5.png', 'Picture3.png', 'Picture9.png']",right,1.0176808999385685,right,1
3,3,28,"['dingep.wav', 'chelad.wav', 'fisslin.wav', 'sumbark.wav', 'jeelow.wav', 'barget.wav']","['Picture1.png', 'Picture3.png', 'Picture7.png']","['Picture1.png', 'Picture5.png', 'Picture7.png']",right,1.0132903000339866,right,1
4,3,29,"['nellby.wav', 'sumbark.wav', 'jeelow.wav', 'chelad.wav', 'rakken.wav', 'barget.wav']","['Picture5.png', 'Picture7.png', 'Picture8.png']","['Picture5.png', 'Picture7.png', 'Picture3.png']",right,0.209771899972111,right,1
5,3,30,"['goorshell.wav', 'chelad.wav', 'pakrid.wav', 'sumbark.wav', 'haagle.wav', 'barget.wav']","['Picture6.png', 'Picture4.png', 'Picture10.png']","['Picture6.png', 'Picture4.png', 'Picture2.png']",left,0.8194157000398263,left,1
6,3,31,"['pakrid.wav', 'chelad.wav', 'haagle.wav', 'sumbark.wav', 'fisslin.wav', 'barget.wav']","['Picture4.png', 'Picture10.png', 'Picture3.png']","['Picture10.png', 'Picture4.png', 'Picture3.png']",right,0.4528833000222221,right,1
7,3,32,"['haagle.wav', 'sumbark.wav', 'goorshell.wav', 'chelad.wav', 'pakrid.wav', 'barget.wav']","['Picture10.png', 'Picture6.png', 'Picture4.png']","['Picture6.png', 'Picture10.png', 'Picture4.png']",left,0.3247308999998495,left,1
8,3,33,"['rakken.wav', 'chelad.wav', 'bimdah.wav', 'sumbark.wav', 'jeelow.wav', 'barget.wav']","['Picture8.png', 'Picture2.png', 'Picture7.png']","['Picture7.png', 'Picture2.png', 'Picture8.png']",right,0.23150460002943873,right,1
9,3,34,"['goorshell.wav', 'chelad.wav', 'dingep.wav', 'sumbark.wav', 'haagle.wav', 'barget.wav']","['Picture6.png', 'Picture1.png', 'Picture10.png']","['Picture10.png', 'Picture1.png', 'Picture6.png']",left,0.3042640999192372,left,1
10,3,35,"['jeelow.wav', 'sumbark.wav', 'haagle.wav', 'chelad.wav', 'goorshell.wav', 'barget.wav']","['Picture7.png', 'Picture10.png', 'Picture6.png']","['Picture7.png', 'Picture6.png', 'Picture10.png']",left,0.29642200004309416,left,1
11,3,36,"['limeber.wav', 'sumbark.wav', 'fisslin.wav', 'chelad.wav', 'rakken.wav', 'barget.wav']","['Picture9.png', 'Picture3.png', 'Picture8.png']","['Picture9.png', 'Picture8.png', 'Picture3.png']",left,0.44361059996299446,left,1
0,4,37,"['nellby.wav', 'sumbark.wav', 'limeber.wav', 'chelad.wav', 'fisslin.wav', 'barget.wav']","['Picture5.png', 'Picture9.png', 'Picture3.png']","['Picture8.png', 'Picture9.png', 'Picture3.png']",right,0.07878839992918074,right,1
1,4,38,"['pakrid.wav', 'chelad.wav', 'fisslin.wav', 'sumbark.wav', 'dingep.wav', 'barget.wav']","['Picture4.png', 'Picture3.png', 'Picture1.png']","['Picture10.png', 'Picture3.png', 'Picture1.png']",right,0.18062349990941584,right,1
2,4,39,"['goorshell.wav', 'chelad.wav', 'bimdah.wav', 'sumbark.wav', 'haagle.wav', 'barget.wav']","['Picture6.png', 'Picture2.png', 'Picture10.png']","['Picture6.png', 'Picture9.png', 'Picture10.png']",left,0.5117671000771224,left,1
3,4,40,"['dingep.wav', 'sumbark.wav', 'goorshell.wav', 'chelad.wav', 'jeelow.wav', 'barget.wav']","['Picture1.png', 'Picture6.png', 'Picture7.png']","['Picture1.png', 'Picture2.png', 'Picture7.png']",right,0.5479339000303298,right,1
4,4,41,"['bimdah.wav', 'sumbark.wav', 'nellby.wav', 'chelad.wav', 'goorshell.wav', 'barget.wav']","['Picture2.png', 'Picture5.png', 'Picture6.png']","['Picture2.png', 'Picture5.png', 'Picture1.png']",left,0.24069000000599772,left,1
5,4,42,"['jeelow.wav', 'chelad.wav', 'goorshell.wav', 'sumbark.wav', 'pakrid.wav', 'barget.wav']","['Picture7.png', 'Picture6.png', 'Picture4.png']","['Picture7.png', 'Picture6.png', 'Picture5.png']",left,0.35554010001942515,left,1
6,4,43,"['haagle.wav', 'chelad.wav', 'bimdah.wav', 'sumbark.wav', 'limeber.wav', 'barget.wav']","['Picture10.png', 'Picture2.png', 'Picture9.png']","['Picture2.png', 'Picture10.png', 'Picture9.png']",left,0.059075400000438094,left,1
7,4,44,"['rakken.wav', 'chelad.wav', 'nellby.wav', 'sumbark.wav', 'dingep.wav', 'barget.wav']","['Picture8.png', 'Picture5.png', 'Picture1.png']","['Picture5.png', 'Picture8.png', 'Picture1.png']",right,0.20845700008794665,right,1
8,4,45,"['jeelow.wav', 'sumbark.wav', 'rakken.wav', 'chelad.wav', 'pakrid.wav', 'barget.wav']","['Picture7.png', 'Picture8.png', 'Picture4.png']","['Picture4.png', 'Picture8.png', 'Picture7.png']",right,0.39996039995457977,right,1
9,4,46,"['rakken.wav', 'sumbark.wav', 'jeelow.wav', 'chelad.wav', 'bimdah.wav', 'barget.wav']","['Picture8.png', 'Picture7.png', 'Picture2.png']","['Picture2.png', 'Picture7.png', 'Picture8.png']",right,0.1367090999847278,right,1
10,4,47,"['fisslin.wav', 'chelad.wav', 'haagle.wav', 'sumbark.wav', 'rakken.wav', 'barget.wav']","['Picture3.png', 'Picture10.png', 'Picture8.png']","['Picture3.png', 'Picture8.png', 'Picture10.png']",left,0.7096817999845371,left,1
11,4,48,"['limeber.wav', 'sumbark.wav', 'dingep.wav', 'chelad.wav', 'bimdah.wav', 'barget.wav']","['Picture9.png', 'Picture1.png', 'Picture2.png']","['Picture9.png', 'Picture2.png', 'Picture1.png']",left,0.4742876999080181,left,1
