,block,trial,audio,Target_image,Foil_image,Target_Location,Response Time,Answer,Accuracy
0,1,1,"['rakken.wav', 'chelad.wav', 'fisslin.wav', 'sumbark.wav', 'nellby.wav', 'barget.wav']","['Picture8.png', 'Picture3.png', 'Picture5.png']","['Picture2.png', 'Picture3.png', 'Picture5.png']",left,0.9929177999993044,left,1
1,1,2,"['pakrid.wav', 'chelad.wav', 'dingep.wav', 'sumbark.wav', 'haagle.wav', 'barget.wav']","['Picture4.png', 'Picture1.png', 'Picture10.png']","['Picture8.png', 'Picture1.png', 'Picture10.png']",left,1.1108524999999645,right,0
2,1,3,"['dingep.wav', 'chelad.wav', 'haagle.wav', 'sumbark.wav', 'goorshell.wav', 'barget.wav']","['Picture1.png', 'Picture10.png', 'Picture6.png']","['Picture1.png', 'Picture9.png', 'Picture6.png']",left,2.0227767999995194,left,1
3,1,4,"['haagle.wav', 'chelad.wav', 'limeber.wav', 'sumbark.wav', 'jeelow.wav', 'barget.wav']","['Picture10.png', 'Picture9.png', 'Picture7.png']","['Picture10.png', 'Picture4.png', 'Picture7.png']",left,2.2319167999994534,left,1
4,1,5,"['limeber.wav', 'chelad.wav', 'rakken.wav', 'barget.wav', 'goorshell.wav', 'sumbark.wav']","['Picture9.png', 'Picture8.png', 'Picture6.png']","['Picture9.png', 'Picture8.png', 'Picture1.png']",right,0.9983953999999358,right,1
5,1,6,"['bimdah.wav', 'chelad.wav', 'pakrid.wav', 'barget.wav', 'rakken.wav', 'sumbark.wav']","['Picture2.png', 'Picture4.png', 'Picture8.png']","['Picture2.png', 'Picture4.png', 'Picture5.png']",right,1.964398600000095,left,0
6,1,7,"['dingep.wav', 'chelad.wav', 'goorshell.wav', 'sumbark.wav', 'limeber.wav', 'barget.wav']","['Picture1.png', 'Picture6.png', 'Picture9.png']","['Picture6.png', 'Picture1.png', 'Picture9.png']",right,2.7067903999995906,left,0
7,1,8,"['bimdah.wav', 'chelad.wav', 'dingep.wav', 'barget.wav', 'rakken.wav', 'sumbark.wav']","['Picture2.png', 'Picture1.png', 'Picture8.png']","['Picture1.png', 'Picture2.png', 'Picture8.png']",left,3.326716800000213,left,1
8,1,9,"['fisslin.wav', 'chelad.wav', 'nellby.wav', 'sumbark.wav', 'bimdah.wav', 'barget.wav']","['Picture3.png', 'Picture5.png', 'Picture2.png']","['Picture2.png', 'Picture5.png', 'Picture3.png']",right,2.568418799999563,left,0
9,1,10,"['jeelow.wav', 'chelad.wav', 'bimdah.wav', 'barget.wav', 'fisslin.wav', 'sumbark.wav']","['Picture7.png', 'Picture2.png', 'Picture3.png']","['Picture3.png', 'Picture2.png', 'Picture7.png']",left,1.2474925000005896,right,0
10,1,11,"['nellby.wav', 'chelad.wav', 'haagle.wav', 'barget.wav', 'dingep.wav', 'sumbark.wav']","['Picture5.png', 'Picture10.png', 'Picture1.png']","['Picture5.png', 'Picture1.png', 'Picture10.png']",right,2.1288803000006737,right,1
11,1,12,"['goorshell.wav', 'chelad.wav', 'jeelow.wav', 'barget.wav', 'pakrid.wav', 'sumbark.wav']","['Picture6.png', 'Picture7.png', 'Picture4.png']","['Picture6.png', 'Picture4.png', 'Picture7.png']",right,0.8175862999996752,left,0
0,2,13,"['limeber.wav', 'chelad.wav', 'goorshell.wav', 'barget.wav', 'haagle.wav', 'sumbark.wav']","['Picture9.png', 'Picture6.png', 'Picture10.png']","['Picture7.png', 'Picture6.png', 'Picture10.png']",left,3.2946297999997114,left,1
1,2,14,"['pakrid.wav', 'chelad.wav', 'rakken.wav', 'sumbark.wav', 'bimdah.wav', 'barget.wav']","['Picture4.png', 'Picture8.png', 'Picture2.png']","['Picture10.png', 'Picture8.png', 'Picture2.png']",left,0.6650595999999496,left,1
2,2,15,"['fisslin.wav', 'chelad.wav', 'limeber.wav', 'sumbark.wav', 'dingep.wav', 'barget.wav']","['Picture3.png', 'Picture9.png', 'Picture1.png']","['Picture3.png', 'Picture6.png', 'Picture1.png']",left,0.4943243999996412,right,0
3,2,16,"['rakken.wav', 'chelad.wav', 'jeelow.wav', 'barget.wav', 'limeber.wav', 'sumbark.wav']","['Picture8.png', 'Picture7.png', 'Picture9.png']","['Picture8.png', 'Picture3.png', 'Picture9.png']",left,1.0995903000002727,left,1
4,2,17,"['fisslin.wav', 'chelad.wav', 'rakken.wav', 'barget.wav', 'dingep.wav', 'sumbark.wav']","['Picture3.png', 'Picture8.png', 'Picture1.png']","['Picture3.png', 'Picture8.png', 'Picture9.png']",right,0.5764704000002894,right,1
5,2,18,"['goorshell.wav', 'chelad.wav', 'fisslin.wav', 'sumbark.wav', 'jeelow.wav', 'barget.wav']","['Picture6.png', 'Picture3.png', 'Picture7.png']","['Picture6.png', 'Picture3.png', 'Picture8.png']",right,0.20447770000009768,right,1
6,2,19,"['pakrid.wav', 'chelad.wav', 'nellby.wav', 'barget.wav', 'bimdah.wav', 'sumbark.wav']","['Picture4.png', 'Picture5.png', 'Picture2.png']","['Picture5.png', 'Picture4.png', 'Picture2.png']",left,0.5296870000001945,left,1
7,2,20,"['nellby.wav', 'chelad.wav', 'bimdah.wav', 'sumbark.wav', 'pakrid.wav', 'barget.wav']","['Picture5.png', 'Picture2.png', 'Picture4.png']","['Picture2.png', 'Picture5.png', 'Picture4.png']",right,0.7418710000001738,right,1
8,2,21,"['dingep.wav', 'chelad.wav', 'nellby.wav', 'sumbark.wav', 'fisslin.wav', 'barget.wav']","['Picture1.png', 'Picture5.png', 'Picture3.png']","['Picture3.png', 'Picture5.png', 'Picture1.png']",right,0.9600983999998789,right,1
9,2,22,"['haagle.wav', 'chelad.wav', 'limeber.wav', 'sumbark.wav', 'fisslin.wav', 'barget.wav']","['Picture10.png', 'Picture9.png', 'Picture3.png']","['Picture3.png', 'Picture9.png', 'Picture10.png']",left,2.0721570999994583,left,1
10,2,23,"['bimdah.wav', 'chelad.wav', 'jeelow.wav', 'sumbark.wav', 'nellby.wav', 'barget.wav']","['Picture2.png', 'Picture7.png', 'Picture5.png']","['Picture2.png', 'Picture5.png', 'Picture7.png']",right,0.529599500000586,right,1
11,2,24,"['jeelow.wav', 'chelad.wav', 'pakrid.wav', 'barget.wav', 'nellby.wav', 'sumbark.wav']","['Picture7.png', 'Picture4.png', 'Picture5.png']","['Picture7.png', 'Picture5.png', 'Picture4.png']",right,0.7365119999994931,right,1
0,3,25,"['bimdah.wav', 'chelad.wav', 'limeber.wav', 'sumbark.wav', 'goorshell.wav', 'barget.wav']","['Picture2.png', 'Picture9.png', 'Picture6.png']","['Picture4.png', 'Picture9.png', 'Picture6.png']",right,0.4238525999999183,right,1
1,3,26,"['fisslin.wav', 'chelad.wav', 'rakken.wav', 'sumbark.wav', 'nellby.wav', 'barget.wav']","['Picture3.png', 'Picture8.png', 'Picture5.png']","['Picture2.png', 'Picture8.png', 'Picture5.png']",left,1.9047670999998445,left,1
2,3,27,"['nellby.wav', 'chelad.wav', 'pakrid.wav', 'sumbark.wav', 'limeber.wav', 'barget.wav']","['Picture5.png', 'Picture4.png', 'Picture9.png']","['Picture5.png', 'Picture3.png', 'Picture9.png']",right,0.2991963000004034,right,1
3,3,28,"['dingep.wav', 'chelad.wav', 'fisslin.wav', 'sumbark.wav', 'jeelow.wav', 'barget.wav']","['Picture1.png', 'Picture3.png', 'Picture7.png']","['Picture1.png', 'Picture5.png', 'Picture7.png']",right,0.04769440000018221,right,1
4,3,29,"['nellby.wav', 'chelad.wav', 'jeelow.wav', 'barget.wav', 'rakken.wav', 'sumbark.wav']","['Picture5.png', 'Picture7.png', 'Picture8.png']","['Picture5.png', 'Picture7.png', 'Picture3.png']",right,0.38991970000006404,right,1
5,3,30,"['goorshell.wav', 'chelad.wav', 'pakrid.wav', 'barget.wav', 'haagle.wav', 'sumbark.wav']","['Picture6.png', 'Picture4.png', 'Picture10.png']","['Picture6.png', 'Picture4.png', 'Picture2.png']",left,0.5559708999999202,left,1
6,3,31,"['pakrid.wav', 'chelad.wav', 'haagle.wav', 'barget.wav', 'fisslin.wav', 'sumbark.wav']","['Picture4.png', 'Picture10.png', 'Picture3.png']","['Picture10.png', 'Picture4.png', 'Picture3.png']",right,0.8758020999994187,right,1
7,3,32,"['haagle.wav', 'chelad.wav', 'goorshell.wav', 'sumbark.wav', 'pakrid.wav', 'barget.wav']","['Picture10.png', 'Picture6.png', 'Picture4.png']","['Picture6.png', 'Picture10.png', 'Picture4.png']",left,1.09157789999972,left,1
8,3,33,"['rakken.wav', 'chelad.wav', 'bimdah.wav', 'barget.wav', 'jeelow.wav', 'sumbark.wav']","['Picture8.png', 'Picture2.png', 'Picture7.png']","['Picture7.png', 'Picture2.png', 'Picture8.png']",right,0.4369944999998552,right,1
9,3,34,"['goorshell.wav', 'chelad.wav', 'dingep.wav', 'sumbark.wav', 'haagle.wav', 'barget.wav']","['Picture6.png', 'Picture1.png', 'Picture10.png']","['Picture10.png', 'Picture1.png', 'Picture6.png']",left,0.5994756999998572,left,1
10,3,35,"['jeelow.wav', 'chelad.wav', 'haagle.wav', 'sumbark.wav', 'goorshell.wav', 'barget.wav']","['Picture7.png', 'Picture10.png', 'Picture6.png']","['Picture7.png', 'Picture6.png', 'Picture10.png']",left,0.24549070000011852,left,1
11,3,36,"['limeber.wav', 'chelad.wav', 'fisslin.wav', 'barget.wav', 'rakken.wav', 'sumbark.wav']","['Picture9.png', 'Picture3.png', 'Picture8.png']","['Picture9.png', 'Picture8.png', 'Picture3.png']",left,0.4439057999998113,left,1
0,4,37,"['nellby.wav', 'chelad.wav', 'limeber.wav', 'barget.wav', 'fisslin.wav', 'sumbark.wav']","['Picture5.png', 'Picture9.png', 'Picture3.png']","['Picture8.png', 'Picture9.png', 'Picture3.png']",right,1.0625559000000067,right,1
1,4,38,"['pakrid.wav', 'chelad.wav', 'fisslin.wav', 'barget.wav', 'dingep.wav', 'sumbark.wav']","['Picture4.png', 'Picture3.png', 'Picture1.png']","['Picture10.png', 'Picture3.png', 'Picture1.png']",right,0.5941315999998551,right,1
2,4,39,"['goorshell.wav', 'chelad.wav', 'bimdah.wav', 'sumbark.wav', 'haagle.wav', 'barget.wav']","['Picture6.png', 'Picture2.png', 'Picture10.png']","['Picture6.png', 'Picture9.png', 'Picture10.png']",left,2.862701900000502,left,1
3,4,40,"['dingep.wav', 'chelad.wav', 'goorshell.wav', 'sumbark.wav', 'jeelow.wav', 'barget.wav']","['Picture1.png', 'Picture6.png', 'Picture7.png']","['Picture1.png', 'Picture2.png', 'Picture7.png']",right,0.18340230000012525,right,1
4,4,41,"['bimdah.wav', 'chelad.wav', 'nellby.wav', 'sumbark.wav', 'goorshell.wav', 'barget.wav']","['Picture2.png', 'Picture5.png', 'Picture6.png']","['Picture2.png', 'Picture5.png', 'Picture1.png']",left,0.6175223000000187,left,1
5,4,42,"['jeelow.wav', 'chelad.wav', 'goorshell.wav', 'sumbark.wav', 'pakrid.wav', 'barget.wav']","['Picture7.png', 'Picture6.png', 'Picture4.png']","['Picture7.png', 'Picture6.png', 'Picture5.png']",left,0.13175109999974666,left,1
6,4,43,"['haagle.wav', 'chelad.wav', 'bimdah.wav', 'barget.wav', 'limeber.wav', 'sumbark.wav']","['Picture10.png', 'Picture2.png', 'Picture9.png']","['Picture2.png', 'Picture10.png', 'Picture9.png']",left,0.6074192999994921,left,1
7,4,44,"['rakken.wav', 'chelad.wav', 'nellby.wav', 'sumbark.wav', 'dingep.wav', 'barget.wav']","['Picture8.png', 'Picture5.png', 'Picture1.png']","['Picture5.png', 'Picture8.png', 'Picture1.png']",right,0.3868495000006078,right,1
8,4,45,"['jeelow.wav', 'chelad.wav', 'rakken.wav', 'barget.wav', 'pakrid.wav', 'sumbark.wav']","['Picture7.png', 'Picture8.png', 'Picture4.png']","['Picture4.png', 'Picture8.png', 'Picture7.png']",right,0.37350140000035026,right,1
9,4,46,"['rakken.wav', 'chelad.wav', 'jeelow.wav', 'barget.wav', 'bimdah.wav', 'sumbark.wav']","['Picture8.png', 'Picture7.png', 'Picture2.png']","['Picture2.png', 'Picture7.png', 'Picture8.png']",right,0.7972847000000911,right,1
10,4,47,"['fisslin.wav', 'chelad.wav', 'haagle.wav', 'sumbark.wav', 'rakken.wav', 'barget.wav']","['Picture3.png', 'Picture10.png', 'Picture8.png']","['Picture3.png', 'Picture8.png', 'Picture10.png']",left,0.583155700000134,left,1
11,4,48,"['limeber.wav', 'chelad.wav', 'dingep.wav', 'sumbark.wav', 'bimdah.wav', 'barget.wav']","['Picture9.png', 'Picture1.png', 'Picture2.png']","['Picture9.png', 'Picture2.png', 'Picture1.png']",left,0.18861250000009022,left,1
