,block,trial,audio,Target_image,Foil_image,Target_Location,Response_Time,Answer,Accuracy
0,1,1,"['rakken.wav', 'chelad.wav', 'fisslin.wav', 'sumbark.wav', 'nellby.wav', 'barget.wav']","['Picture8.png', 'Picture3.png', 'Picture5.png']","['Picture2.png', 'Picture3.png', 'Picture5.png']",left,0.9914501000894234,right,0
1,1,2,"['pakrid.wav', 'sumbark.wav', 'dingep.wav', 'chelad.wav', 'haagle.wav', 'barget.wav']","['Picture4.png', 'Picture1.png', 'Picture10.png']","['Picture8.png', 'Picture1.png', 'Picture10.png']",left,0.1537425999995321,left,1
2,1,3,"['dingep.wav', 'chelad.wav', 'haagle.wav', 'sumbark.wav', 'goorshell.wav', 'barget.wav']","['Picture1.png', 'Picture10.png', 'Picture6.png']","['Picture1.png', 'Picture9.png', 'Picture6.png']",left,1.5340802000137046,left,1
3,1,4,"['haagle.wav', 'sumbark.wav', 'limeber.wav', 'chelad.wav', 'jeelow.wav', 'barget.wav']","['Picture10.png', 'Picture9.png', 'Picture7.png']","['Picture10.png', 'Picture4.png', 'Picture7.png']",left,0.3340883000055328,left,1
4,1,5,"['limeber.wav', 'sumbark.wav', 'rakken.wav', 'chelad.wav', 'goorshell.wav', 'barget.wav']","['Picture9.png', 'Picture8.png', 'Picture6.png']","['Picture9.png', 'Picture8.png', 'Picture1.png']",right,0.6803150000050664,right,1
5,1,6,"['bimdah.wav', 'sumbark.wav', 'pakrid.wav', 'chelad.wav', 'rakken.wav', 'barget.wav']","['Picture2.png', 'Picture4.png', 'Picture8.png']","['Picture2.png', 'Picture4.png', 'Picture5.png']",right,0.46366439992561936,right,1
6,1,7,"['dingep.wav', 'sumbark.wav', 'goorshell.wav', 'chelad.wav', 'limeber.wav', 'barget.wav']","['Picture1.png', 'Picture6.png', 'Picture9.png']","['Picture6.png', 'Picture1.png', 'Picture9.png']",right,2.1210880000144243,left,0
7,1,8,"['bimdah.wav', 'chelad.wav', 'dingep.wav', 'sumbark.wav', 'rakken.wav', 'barget.wav']","['Picture2.png', 'Picture1.png', 'Picture8.png']","['Picture1.png', 'Picture2.png', 'Picture8.png']",left,1.2938433000817895,left,1
8,1,9,"['fisslin.wav', 'sumbark.wav', 'nellby.wav', 'chelad.wav', 'bimdah.wav', 'barget.wav']","['Picture3.png', 'Picture5.png', 'Picture2.png']","['Picture2.png', 'Picture5.png', 'Picture3.png']",right,1.6870826999656856,left,0
9,1,10,"['jeelow.wav', 'sumbark.wav', 'bimdah.wav', 'chelad.wav', 'fisslin.wav', 'barget.wav']","['Picture7.png', 'Picture2.png', 'Picture3.png']","['Picture3.png', 'Picture2.png', 'Picture7.png']",left,0.4786284000147134,right,0
10,1,11,"['nellby.wav', 'sumbark.wav', 'haagle.wav', 'chelad.wav', 'dingep.wav', 'barget.wav']","['Picture5.png', 'Picture10.png', 'Picture1.png']","['Picture5.png', 'Picture1.png', 'Picture10.png']",right,0.17034810001496226,left,0
11,1,12,"['goorshell.wav', 'chelad.wav', 'jeelow.wav', 'sumbark.wav', 'pakrid.wav', 'barget.wav']","['Picture6.png', 'Picture7.png', 'Picture4.png']","['Picture6.png', 'Picture4.png', 'Picture7.png']",right,0.1316109000472352,right,1
0,2,13,"['limeber.wav', 'chelad.wav', 'goorshell.wav', 'sumbark.wav', 'haagle.wav', 'barget.wav']","['Picture9.png', 'Picture6.png', 'Picture10.png']","['Picture7.png', 'Picture6.png', 'Picture10.png']",left,0.20603949995711446,left,1
1,2,14,"['pakrid.wav', 'sumbark.wav', 'rakken.wav', 'chelad.wav', 'bimdah.wav', 'barget.wav']","['Picture4.png', 'Picture8.png', 'Picture2.png']","['Picture10.png', 'Picture8.png', 'Picture2.png']",left,0.3840174999786541,left,1
2,2,15,"['fisslin.wav', 'sumbark.wav', 'limeber.wav', 'chelad.wav', 'dingep.wav', 'barget.wav']","['Picture3.png', 'Picture9.png', 'Picture1.png']","['Picture3.png', 'Picture6.png', 'Picture1.png']",left,0.36970960011240095,left,1
3,2,16,"['rakken.wav', 'chelad.wav', 'jeelow.wav', 'sumbark.wav', 'limeber.wav', 'barget.wav']","['Picture8.png', 'Picture7.png', 'Picture9.png']","['Picture8.png', 'Picture3.png', 'Picture9.png']",left,0.20018749998416752,left,1
4,2,17,"['fisslin.wav', 'chelad.wav', 'rakken.wav', 'sumbark.wav', 'dingep.wav', 'barget.wav']","['Picture3.png', 'Picture8.png', 'Picture1.png']","['Picture3.png', 'Picture8.png', 'Picture9.png']",right,0.7135447000619024,right,1
5,2,18,"['goorshell.wav', 'chelad.wav', 'fisslin.wav', 'sumbark.wav', 'jeelow.wav', 'barget.wav']","['Picture6.png', 'Picture3.png', 'Picture7.png']","['Picture6.png', 'Picture3.png', 'Picture8.png']",right,0.3528924999991432,right,1
6,2,19,"['pakrid.wav', 'sumbark.wav', 'nellby.wav', 'chelad.wav', 'bimdah.wav', 'barget.wav']","['Picture4.png', 'Picture5.png', 'Picture2.png']","['Picture5.png', 'Picture4.png', 'Picture2.png']",left,0.3724473000038415,left,1
7,2,20,"['nellby.wav', 'chelad.wav', 'bimdah.wav', 'sumbark.wav', 'pakrid.wav', 'barget.wav']","['Picture5.png', 'Picture2.png', 'Picture4.png']","['Picture2.png', 'Picture5.png', 'Picture4.png']",right,0.2090171999298036,left,0
8,2,21,"['dingep.wav', 'chelad.wav', 'nellby.wav', 'sumbark.wav', 'fisslin.wav', 'barget.wav']","['Picture1.png', 'Picture5.png', 'Picture3.png']","['Picture3.png', 'Picture5.png', 'Picture1.png']",right,0.4541758999694139,right,1
9,2,22,"['haagle.wav', 'sumbark.wav', 'limeber.wav', 'chelad.wav', 'fisslin.wav', 'barget.wav']","['Picture10.png', 'Picture9.png', 'Picture3.png']","['Picture3.png', 'Picture9.png', 'Picture10.png']",left,0.4716944000683725,left,1
10,2,23,"['bimdah.wav', 'chelad.wav', 'jeelow.wav', 'sumbark.wav', 'nellby.wav', 'barget.wav']","['Picture2.png', 'Picture7.png', 'Picture5.png']","['Picture2.png', 'Picture5.png', 'Picture7.png']",right,2.702449999982491,right,1
11,2,24,"['jeelow.wav', 'chelad.wav', 'pakrid.wav', 'sumbark.wav', 'nellby.wav', 'barget.wav']","['Picture7.png', 'Picture4.png', 'Picture5.png']","['Picture7.png', 'Picture5.png', 'Picture4.png']",right,0.37524339999072254,right,1
0,3,25,"['bimdah.wav', 'chelad.wav', 'limeber.wav', 'sumbark.wav', 'goorshell.wav', 'barget.wav']","['Picture2.png', 'Picture9.png', 'Picture6.png']","['Picture4.png', 'Picture9.png', 'Picture6.png']",right,0.22353660000953823,right,1
1,3,26,"['fisslin.wav', 'sumbark.wav', 'rakken.wav', 'chelad.wav', 'nellby.wav', 'barget.wav']","['Picture3.png', 'Picture8.png', 'Picture5.png']","['Picture2.png', 'Picture8.png', 'Picture5.png']",left,0.19865949999075383,left,1
2,3,27,"['nellby.wav', 'sumbark.wav', 'pakrid.wav', 'chelad.wav', 'limeber.wav', 'barget.wav']","['Picture5.png', 'Picture4.png', 'Picture9.png']","['Picture5.png', 'Picture3.png', 'Picture9.png']",right,0.2588880000403151,right,1
3,3,28,"['dingep.wav', 'chelad.wav', 'fisslin.wav', 'sumbark.wav', 'jeelow.wav', 'barget.wav']","['Picture1.png', 'Picture3.png', 'Picture7.png']","['Picture1.png', 'Picture5.png', 'Picture7.png']",right,0.33918490004725754,right,1
4,3,29,"['nellby.wav', 'sumbark.wav', 'jeelow.wav', 'chelad.wav', 'rakken.wav', 'barget.wav']","['Picture5.png', 'Picture7.png', 'Picture8.png']","['Picture5.png', 'Picture7.png', 'Picture3.png']",right,0.38080549996811897,right,1
5,3,30,"['goorshell.wav', 'chelad.wav', 'pakrid.wav', 'sumbark.wav', 'haagle.wav', 'barget.wav']","['Picture6.png', 'Picture4.png', 'Picture10.png']","['Picture6.png', 'Picture4.png', 'Picture2.png']",left,1.8528453999897465,left,1
6,3,31,"['pakrid.wav', 'chelad.wav', 'haagle.wav', 'sumbark.wav', 'fisslin.wav', 'barget.wav']","['Picture4.png', 'Picture10.png', 'Picture3.png']","['Picture10.png', 'Picture4.png', 'Picture3.png']",right,0.4194769999012351,right,1
7,3,32,"['haagle.wav', 'sumbark.wav', 'goorshell.wav', 'chelad.wav', 'pakrid.wav', 'barget.wav']","['Picture10.png', 'Picture6.png', 'Picture4.png']","['Picture6.png', 'Picture10.png', 'Picture4.png']",left,0.5664352000458166,left,1
8,3,33,"['rakken.wav', 'chelad.wav', 'bimdah.wav', 'sumbark.wav', 'jeelow.wav', 'barget.wav']","['Picture8.png', 'Picture2.png', 'Picture7.png']","['Picture7.png', 'Picture2.png', 'Picture8.png']",right,0.46891880000475794,right,1
9,3,34,"['goorshell.wav', 'chelad.wav', 'dingep.wav', 'sumbark.wav', 'haagle.wav', 'barget.wav']","['Picture6.png', 'Picture1.png', 'Picture10.png']","['Picture10.png', 'Picture1.png', 'Picture6.png']",left,0.2610592000419274,left,1
10,3,35,"['jeelow.wav', 'sumbark.wav', 'haagle.wav', 'chelad.wav', 'goorshell.wav', 'barget.wav']","['Picture7.png', 'Picture10.png', 'Picture6.png']","['Picture7.png', 'Picture6.png', 'Picture10.png']",left,3.8917046000715345,left,1
11,3,36,"['limeber.wav', 'sumbark.wav', 'fisslin.wav', 'chelad.wav', 'rakken.wav', 'barget.wav']","['Picture9.png', 'Picture3.png', 'Picture8.png']","['Picture9.png', 'Picture8.png', 'Picture3.png']",left,0.9354829000076279,left,1
0,4,37,"['nellby.wav', 'sumbark.wav', 'limeber.wav', 'chelad.wav', 'fisslin.wav', 'barget.wav']","['Picture5.png', 'Picture9.png', 'Picture3.png']","['Picture8.png', 'Picture9.png', 'Picture3.png']",right,3.153892599977553,right,1
1,4,38,"['pakrid.wav', 'chelad.wav', 'fisslin.wav', 'sumbark.wav', 'dingep.wav', 'barget.wav']","['Picture4.png', 'Picture3.png', 'Picture1.png']","['Picture10.png', 'Picture3.png', 'Picture1.png']",right,0.5780627999920398,right,1
2,4,39,"['goorshell.wav', 'chelad.wav', 'bimdah.wav', 'sumbark.wav', 'haagle.wav', 'barget.wav']","['Picture6.png', 'Picture2.png', 'Picture10.png']","['Picture6.png', 'Picture9.png', 'Picture10.png']",left,0.5301303999731317,left,1
3,4,40,"['dingep.wav', 'sumbark.wav', 'goorshell.wav', 'chelad.wav', 'jeelow.wav', 'barget.wav']","['Picture1.png', 'Picture6.png', 'Picture7.png']","['Picture1.png', 'Picture2.png', 'Picture7.png']",right,0.5415779000613838,right,1
4,4,41,"['bimdah.wav', 'sumbark.wav', 'nellby.wav', 'chelad.wav', 'goorshell.wav', 'barget.wav']","['Picture2.png', 'Picture5.png', 'Picture6.png']","['Picture2.png', 'Picture5.png', 'Picture1.png']",left,0.5100351999280974,left,1
5,4,42,"['jeelow.wav', 'chelad.wav', 'goorshell.wav', 'sumbark.wav', 'pakrid.wav', 'barget.wav']","['Picture7.png', 'Picture6.png', 'Picture4.png']","['Picture7.png', 'Picture6.png', 'Picture5.png']",left,0.38986340002156794,left,1
6,4,43,"['haagle.wav', 'chelad.wav', 'bimdah.wav', 'sumbark.wav', 'limeber.wav', 'barget.wav']","['Picture10.png', 'Picture2.png', 'Picture9.png']","['Picture2.png', 'Picture10.png', 'Picture9.png']",left,0.2762742000631988,left,1
7,4,44,"['rakken.wav', 'chelad.wav', 'nellby.wav', 'sumbark.wav', 'dingep.wav', 'barget.wav']","['Picture8.png', 'Picture5.png', 'Picture1.png']","['Picture5.png', 'Picture8.png', 'Picture1.png']",right,0.2525534000014886,right,1
8,4,45,"['jeelow.wav', 'sumbark.wav', 'rakken.wav', 'chelad.wav', 'pakrid.wav', 'barget.wav']","['Picture7.png', 'Picture8.png', 'Picture4.png']","['Picture4.png', 'Picture8.png', 'Picture7.png']",right,0.23369490006007254,right,1
9,4,46,"['rakken.wav', 'sumbark.wav', 'jeelow.wav', 'chelad.wav', 'bimdah.wav', 'barget.wav']","['Picture8.png', 'Picture7.png', 'Picture2.png']","['Picture2.png', 'Picture7.png', 'Picture8.png']",right,0.9783243999117985,right,1
10,4,47,"['fisslin.wav', 'chelad.wav', 'haagle.wav', 'sumbark.wav', 'rakken.wav', 'barget.wav']","['Picture3.png', 'Picture10.png', 'Picture8.png']","['Picture3.png', 'Picture8.png', 'Picture10.png']",left,0.6020559000317007,left,1
11,4,48,"['limeber.wav', 'sumbark.wav', 'dingep.wav', 'chelad.wav', 'bimdah.wav', 'barget.wav']","['Picture9.png', 'Picture1.png', 'Picture2.png']","['Picture9.png', 'Picture2.png', 'Picture1.png']",left,2.4399480000138283,left,1
