,block,trial,audio,Target_image,Foil_image,Target_Location,Response Time,Answer,Accuracy
0,1,1,"['rakken.wav', 'chelad.wav', 'fisslin.wav', 'sumbark.wav', 'nellby.wav', 'barget.wav']","['Picture8.png', 'Picture3.png', 'Picture5.png']","['Picture2.png', 'Picture3.png', 'Picture5.png']",left,8.004508699988946,left,1
1,1,2,"['pakrid.wav', 'chelad.wav', 'dingep.wav', 'sumbark.wav', 'haagle.wav', 'barget.wav']","['Picture4.png', 'Picture1.png', 'Picture10.png']","['Picture8.png', 'Picture1.png', 'Picture10.png']",left,6.787748399976408,right,0
2,1,3,"['dingep.wav', 'chelad.wav', 'haagle.wav', 'sumbark.wav', 'goorshell.wav', 'barget.wav']","['Picture1.png', 'Picture10.png', 'Picture6.png']","['Picture1.png', 'Picture9.png', 'Picture6.png']",left,4.234038800001144,left,1
3,1,4,"['haagle.wav', 'chelad.wav', 'limeber.wav', 'sumbark.wav', 'jeelow.wav', 'barget.wav']","['Picture10.png', 'Picture9.png', 'Picture7.png']","['Picture10.png', 'Picture4.png', 'Picture7.png']",left,1.2347589999844786,left,1
4,1,5,"['limeber.wav', 'chelad.wav', 'rakken.wav', 'barget.wav', 'goorshell.wav', 'sumbark.wav']","['Picture9.png', 'Picture8.png', 'Picture6.png']","['Picture9.png', 'Picture8.png', 'Picture1.png']",right,2.959988599992357,right,1
5,1,6,"['bimdah.wav', 'chelad.wav', 'pakrid.wav', 'barget.wav', 'rakken.wav', 'sumbark.wav']","['Picture2.png', 'Picture4.png', 'Picture8.png']","['Picture2.png', 'Picture4.png', 'Picture5.png']",right,4.066316999989795,left,0
6,1,7,"['dingep.wav', 'chelad.wav', 'goorshell.wav', 'sumbark.wav', 'limeber.wav', 'barget.wav']","['Picture1.png', 'Picture6.png', 'Picture9.png']","['Picture6.png', 'Picture1.png', 'Picture9.png']",right,9.195516100007808,right,1
7,1,8,"['bimdah.wav', 'chelad.wav', 'dingep.wav', 'barget.wav', 'rakken.wav', 'sumbark.wav']","['Picture2.png', 'Picture1.png', 'Picture8.png']","['Picture1.png', 'Picture2.png', 'Picture8.png']",left,4.000182300020242,left,1
8,1,9,"['fisslin.wav', 'chelad.wav', 'nellby.wav', 'sumbark.wav', 'bimdah.wav', 'barget.wav']","['Picture3.png', 'Picture5.png', 'Picture2.png']","['Picture2.png', 'Picture5.png', 'Picture3.png']",right,2.8745036000036635,left,0
9,1,10,"['jeelow.wav', 'chelad.wav', 'bimdah.wav', 'barget.wav', 'fisslin.wav', 'sumbark.wav']","['Picture7.png', 'Picture2.png', 'Picture3.png']","['Picture3.png', 'Picture2.png', 'Picture7.png']",left,3.6235504999931436,left,1
10,1,11,"['nellby.wav', 'chelad.wav', 'haagle.wav', 'barget.wav', 'dingep.wav', 'sumbark.wav']","['Picture5.png', 'Picture10.png', 'Picture1.png']","['Picture5.png', 'Picture1.png', 'Picture10.png']",right,3.6136899999983143,right,1
11,1,12,"['goorshell.wav', 'chelad.wav', 'jeelow.wav', 'barget.wav', 'pakrid.wav', 'sumbark.wav']","['Picture6.png', 'Picture7.png', 'Picture4.png']","['Picture6.png', 'Picture4.png', 'Picture7.png']",right,4.997399499989115,left,0
0,2,13,"['limeber.wav', 'chelad.wav', 'goorshell.wav', 'barget.wav', 'haagle.wav', 'sumbark.wav']","['Picture9.png', 'Picture6.png', 'Picture10.png']","['Picture7.png', 'Picture6.png', 'Picture10.png']",left,1.031613799976185,left,1
1,2,14,"['pakrid.wav', 'chelad.wav', 'rakken.wav', 'sumbark.wav', 'bimdah.wav', 'barget.wav']","['Picture4.png', 'Picture8.png', 'Picture2.png']","['Picture10.png', 'Picture8.png', 'Picture2.png']",left,5.531186600012006,left,1
2,2,15,"['fisslin.wav', 'chelad.wav', 'limeber.wav', 'sumbark.wav', 'dingep.wav', 'barget.wav']","['Picture3.png', 'Picture9.png', 'Picture1.png']","['Picture3.png', 'Picture6.png', 'Picture1.png']",left,0.9148680999933276,left,1
3,2,16,"['rakken.wav', 'chelad.wav', 'jeelow.wav', 'barget.wav', 'limeber.wav', 'sumbark.wav']","['Picture8.png', 'Picture7.png', 'Picture9.png']","['Picture8.png', 'Picture3.png', 'Picture9.png']",left,0.8205525000230409,left,1
4,2,17,"['fisslin.wav', 'chelad.wav', 'rakken.wav', 'barget.wav', 'dingep.wav', 'sumbark.wav']","['Picture3.png', 'Picture8.png', 'Picture1.png']","['Picture3.png', 'Picture8.png', 'Picture9.png']",right,0.8774154999991879,right,1
5,2,18,"['goorshell.wav', 'chelad.wav', 'fisslin.wav', 'sumbark.wav', 'jeelow.wav', 'barget.wav']","['Picture6.png', 'Picture3.png', 'Picture7.png']","['Picture6.png', 'Picture3.png', 'Picture8.png']",right,1.4479675999900792,right,1
6,2,19,"['pakrid.wav', 'chelad.wav', 'nellby.wav', 'barget.wav', 'bimdah.wav', 'sumbark.wav']","['Picture4.png', 'Picture5.png', 'Picture2.png']","['Picture5.png', 'Picture4.png', 'Picture2.png']",left,1.093851799989352,left,1
7,2,20,"['nellby.wav', 'chelad.wav', 'bimdah.wav', 'sumbark.wav', 'pakrid.wav', 'barget.wav']","['Picture5.png', 'Picture2.png', 'Picture4.png']","['Picture2.png', 'Picture5.png', 'Picture4.png']",right,5.167882399982773,right,1
8,2,21,"['dingep.wav', 'chelad.wav', 'nellby.wav', 'sumbark.wav', 'fisslin.wav', 'barget.wav']","['Picture1.png', 'Picture5.png', 'Picture3.png']","['Picture3.png', 'Picture5.png', 'Picture1.png']",right,0.7100044999970123,left,0
9,2,22,"['haagle.wav', 'chelad.wav', 'limeber.wav', 'sumbark.wav', 'fisslin.wav', 'barget.wav']","['Picture10.png', 'Picture9.png', 'Picture3.png']","['Picture3.png', 'Picture9.png', 'Picture10.png']",left,0.1497015999921132,left,1
10,2,23,"['bimdah.wav', 'chelad.wav', 'jeelow.wav', 'sumbark.wav', 'nellby.wav', 'barget.wav']","['Picture2.png', 'Picture7.png', 'Picture5.png']","['Picture2.png', 'Picture5.png', 'Picture7.png']",right,0.3209760999889113,right,1
11,2,24,"['jeelow.wav', 'chelad.wav', 'pakrid.wav', 'barget.wav', 'nellby.wav', 'sumbark.wav']","['Picture7.png', 'Picture4.png', 'Picture5.png']","['Picture7.png', 'Picture5.png', 'Picture4.png']",right,0.9789685999858193,right,1
0,3,25,"['bimdah.wav', 'chelad.wav', 'limeber.wav', 'sumbark.wav', 'goorshell.wav', 'barget.wav']","['Picture2.png', 'Picture9.png', 'Picture6.png']","['Picture4.png', 'Picture9.png', 'Picture6.png']",right,0.9312486000126228,right,1
1,3,26,"['fisslin.wav', 'chelad.wav', 'rakken.wav', 'sumbark.wav', 'nellby.wav', 'barget.wav']","['Picture3.png', 'Picture8.png', 'Picture5.png']","['Picture2.png', 'Picture8.png', 'Picture5.png']",left,0.12588000000687316,left,1
2,3,27,"['nellby.wav', 'chelad.wav', 'pakrid.wav', 'sumbark.wav', 'limeber.wav', 'barget.wav']","['Picture5.png', 'Picture4.png', 'Picture9.png']","['Picture5.png', 'Picture3.png', 'Picture9.png']",right,0.4013899000128731,right,1
3,3,28,"['dingep.wav', 'chelad.wav', 'fisslin.wav', 'sumbark.wav', 'jeelow.wav', 'barget.wav']","['Picture1.png', 'Picture3.png', 'Picture7.png']","['Picture1.png', 'Picture5.png', 'Picture7.png']",right,0.23045279999496415,right,1
4,3,29,"['nellby.wav', 'chelad.wav', 'jeelow.wav', 'barget.wav', 'rakken.wav', 'sumbark.wav']","['Picture5.png', 'Picture7.png', 'Picture8.png']","['Picture5.png', 'Picture7.png', 'Picture3.png']",right,0.46548350001103245,right,1
5,3,30,"['goorshell.wav', 'chelad.wav', 'pakrid.wav', 'barget.wav', 'haagle.wav', 'sumbark.wav']","['Picture6.png', 'Picture4.png', 'Picture10.png']","['Picture6.png', 'Picture4.png', 'Picture2.png']",left,0.3226262999814935,left,1
6,3,31,"['pakrid.wav', 'chelad.wav', 'haagle.wav', 'barget.wav', 'fisslin.wav', 'sumbark.wav']","['Picture4.png', 'Picture10.png', 'Picture3.png']","['Picture10.png', 'Picture4.png', 'Picture3.png']",right,0.4830761000048369,right,1
7,3,32,"['haagle.wav', 'chelad.wav', 'goorshell.wav', 'sumbark.wav', 'pakrid.wav', 'barget.wav']","['Picture10.png', 'Picture6.png', 'Picture4.png']","['Picture6.png', 'Picture10.png', 'Picture4.png']",left,1.6030945999955293,left,1
8,3,33,"['rakken.wav', 'chelad.wav', 'bimdah.wav', 'barget.wav', 'jeelow.wav', 'sumbark.wav']","['Picture8.png', 'Picture2.png', 'Picture7.png']","['Picture7.png', 'Picture2.png', 'Picture8.png']",right,0.5474957000114955,right,1
9,3,34,"['goorshell.wav', 'chelad.wav', 'dingep.wav', 'sumbark.wav', 'haagle.wav', 'barget.wav']","['Picture6.png', 'Picture1.png', 'Picture10.png']","['Picture10.png', 'Picture1.png', 'Picture6.png']",left,4.260706899978686,left,1
10,3,35,"['jeelow.wav', 'chelad.wav', 'haagle.wav', 'sumbark.wav', 'goorshell.wav', 'barget.wav']","['Picture7.png', 'Picture10.png', 'Picture6.png']","['Picture7.png', 'Picture6.png', 'Picture10.png']",left,0.13273119999212213,left,1
11,3,36,"['limeber.wav', 'chelad.wav', 'fisslin.wav', 'barget.wav', 'rakken.wav', 'sumbark.wav']","['Picture9.png', 'Picture3.png', 'Picture8.png']","['Picture9.png', 'Picture8.png', 'Picture3.png']",left,0.36558539999532513,left,1
0,4,37,"['nellby.wav', 'chelad.wav', 'limeber.wav', 'barget.wav', 'fisslin.wav', 'sumbark.wav']","['Picture5.png', 'Picture9.png', 'Picture3.png']","['Picture8.png', 'Picture9.png', 'Picture3.png']",right,0.2985323000175413,right,1
1,4,38,"['pakrid.wav', 'chelad.wav', 'fisslin.wav', 'barget.wav', 'dingep.wav', 'sumbark.wav']","['Picture4.png', 'Picture3.png', 'Picture1.png']","['Picture10.png', 'Picture3.png', 'Picture1.png']",right,0.30164520000107586,right,1
2,4,39,"['goorshell.wav', 'chelad.wav', 'bimdah.wav', 'sumbark.wav', 'haagle.wav', 'barget.wav']","['Picture6.png', 'Picture2.png', 'Picture10.png']","['Picture6.png', 'Picture9.png', 'Picture10.png']",left,0.11319619999267161,left,1
3,4,40,"['dingep.wav', 'chelad.wav', 'goorshell.wav', 'sumbark.wav', 'jeelow.wav', 'barget.wav']","['Picture1.png', 'Picture6.png', 'Picture7.png']","['Picture1.png', 'Picture2.png', 'Picture7.png']",right,0.06828490001498722,right,1
4,4,41,"['bimdah.wav', 'chelad.wav', 'nellby.wav', 'sumbark.wav', 'goorshell.wav', 'barget.wav']","['Picture2.png', 'Picture5.png', 'Picture6.png']","['Picture2.png', 'Picture5.png', 'Picture1.png']",left,0.07980089998454787,left,1
5,4,42,"['jeelow.wav', 'chelad.wav', 'goorshell.wav', 'sumbark.wav', 'pakrid.wav', 'barget.wav']","['Picture7.png', 'Picture6.png', 'Picture4.png']","['Picture7.png', 'Picture6.png', 'Picture5.png']",left,0.1582928000134416,left,1
6,4,43,"['haagle.wav', 'chelad.wav', 'bimdah.wav', 'barget.wav', 'limeber.wav', 'sumbark.wav']","['Picture10.png', 'Picture2.png', 'Picture9.png']","['Picture2.png', 'Picture10.png', 'Picture9.png']",left,5.274718100001337,left,1
7,4,44,"['rakken.wav', 'chelad.wav', 'nellby.wav', 'sumbark.wav', 'dingep.wav', 'barget.wav']","['Picture8.png', 'Picture5.png', 'Picture1.png']","['Picture5.png', 'Picture8.png', 'Picture1.png']",right,1.108554099977482,right,1
8,4,45,"['jeelow.wav', 'chelad.wav', 'rakken.wav', 'barget.wav', 'pakrid.wav', 'sumbark.wav']","['Picture7.png', 'Picture8.png', 'Picture4.png']","['Picture4.png', 'Picture8.png', 'Picture7.png']",right,0.6383982999832369,right,1
9,4,46,"['rakken.wav', 'chelad.wav', 'jeelow.wav', 'barget.wav', 'bimdah.wav', 'sumbark.wav']","['Picture8.png', 'Picture7.png', 'Picture2.png']","['Picture2.png', 'Picture7.png', 'Picture8.png']",right,0.27989269999670796,right,1
10,4,47,"['fisslin.wav', 'chelad.wav', 'haagle.wav', 'sumbark.wav', 'rakken.wav', 'barget.wav']","['Picture3.png', 'Picture10.png', 'Picture8.png']","['Picture3.png', 'Picture8.png', 'Picture10.png']",left,0.30616169999120757,left,1
11,4,48,"['limeber.wav', 'chelad.wav', 'dingep.wav', 'sumbark.wav', 'bimdah.wav', 'barget.wav']","['Picture9.png', 'Picture1.png', 'Picture2.png']","['Picture9.png', 'Picture2.png', 'Picture1.png']",left,0.09291960002155975,left,1
