,block,trial,audio,Target_image,Foil_image,Target_Location,Response Time,Answer,Accuracy
0,1,1,"['rakken.wav', 'barget.wav', 'fisslin.wav', 'sumbark.wav', 'nellby.wav', 'chelad.wav']","['Picture8.png', 'Picture3.png', 'Picture5.png']","['Picture2.png', 'Picture3.png', 'Picture5.png']",left,0.6433974000392482,left,1
1,1,2,"['pakrid.wav', 'chelad.wav', 'dingep.wav', 'sumbark.wav', 'haagle.wav', 'barget.wav']","['Picture4.png', 'Picture1.png', 'Picture10.png']","['Picture8.png', 'Picture1.png', 'Picture10.png']",left,2.109338599955663,left,1
2,1,3,"['dingep.wav', 'chelad.wav', 'haagle.wav', 'sumbark.wav', 'goorshell.wav', 'barget.wav']","['Picture1.png', 'Picture10.png', 'Picture6.png']","['Picture1.png', 'Picture9.png', 'Picture6.png']",left,1.0222096999641508,right,0
3,1,4,"['haagle.wav', 'barget.wav', 'limeber.wav', 'sumbark.wav', 'jeelow.wav', 'chelad.wav']","['Picture10.png', 'Picture9.png', 'Picture7.png']","['Picture10.png', 'Picture4.png', 'Picture7.png']",left,1.4429068000172265,right,0
4,1,5,"['limeber.wav', 'barget.wav', 'rakken.wav', 'sumbark.wav', 'goorshell.wav', 'chelad.wav']","['Picture9.png', 'Picture8.png', 'Picture6.png']","['Picture9.png', 'Picture8.png', 'Picture1.png']",right,0.9387043999740854,right,1
5,1,6,"['bimdah.wav', 'barget.wav', 'pakrid.wav', 'sumbark.wav', 'rakken.wav', 'chelad.wav']","['Picture2.png', 'Picture4.png', 'Picture8.png']","['Picture2.png', 'Picture4.png', 'Picture5.png']",right,0.5135664999834262,right,1
6,1,7,"['dingep.wav', 'barget.wav', 'goorshell.wav', 'sumbark.wav', 'limeber.wav', 'chelad.wav']","['Picture1.png', 'Picture6.png', 'Picture9.png']","['Picture6.png', 'Picture1.png', 'Picture9.png']",right,2.5081053000176325,left,0
7,1,8,"['bimdah.wav', 'chelad.wav', 'dingep.wav', 'sumbark.wav', 'rakken.wav', 'barget.wav']","['Picture2.png', 'Picture1.png', 'Picture8.png']","['Picture1.png', 'Picture2.png', 'Picture8.png']",left,1.0716291000135243,left,1
8,1,9,"['fisslin.wav', 'barget.wav', 'nellby.wav', 'sumbark.wav', 'bimdah.wav', 'chelad.wav']","['Picture3.png', 'Picture5.png', 'Picture2.png']","['Picture2.png', 'Picture5.png', 'Picture3.png']",right,0.5929345999611542,right,1
9,1,10,"['jeelow.wav', 'barget.wav', 'bimdah.wav', 'sumbark.wav', 'fisslin.wav', 'chelad.wav']","['Picture7.png', 'Picture2.png', 'Picture3.png']","['Picture3.png', 'Picture2.png', 'Picture7.png']",left,0.1874678999884054,left,1
10,1,11,"['nellby.wav', 'chelad.wav', 'haagle.wav', 'sumbark.wav', 'dingep.wav', 'barget.wav']","['Picture5.png', 'Picture10.png', 'Picture1.png']","['Picture5.png', 'Picture1.png', 'Picture10.png']",right,1.2697796000284143,left,0
11,1,12,"['goorshell.wav', 'chelad.wav', 'jeelow.wav', 'sumbark.wav', 'pakrid.wav', 'barget.wav']","['Picture6.png', 'Picture7.png', 'Picture4.png']","['Picture6.png', 'Picture4.png', 'Picture7.png']",right,0.859390199999325,left,0
0,2,13,"['limeber.wav', 'chelad.wav', 'goorshell.wav', 'sumbark.wav', 'haagle.wav', 'barget.wav']","['Picture9.png', 'Picture6.png', 'Picture10.png']","['Picture7.png', 'Picture6.png', 'Picture10.png']",left,0.9819201999926008,left,1
1,2,14,"['pakrid.wav', 'barget.wav', 'rakken.wav', 'sumbark.wav', 'bimdah.wav', 'chelad.wav']","['Picture4.png', 'Picture8.png', 'Picture2.png']","['Picture10.png', 'Picture8.png', 'Picture2.png']",left,1.5122991999960504,right,0
2,2,15,"['fisslin.wav', 'barget.wav', 'limeber.wav', 'sumbark.wav', 'dingep.wav', 'chelad.wav']","['Picture3.png', 'Picture9.png', 'Picture1.png']","['Picture3.png', 'Picture6.png', 'Picture1.png']",left,0.7447717000031844,right,0
3,2,16,"['rakken.wav', 'chelad.wav', 'jeelow.wav', 'sumbark.wav', 'limeber.wav', 'barget.wav']","['Picture8.png', 'Picture7.png', 'Picture9.png']","['Picture8.png', 'Picture3.png', 'Picture9.png']",left,0.8288531000143848,right,0
4,2,17,"['fisslin.wav', 'barget.wav', 'rakken.wav', 'sumbark.wav', 'dingep.wav', 'chelad.wav']","['Picture3.png', 'Picture8.png', 'Picture1.png']","['Picture3.png', 'Picture8.png', 'Picture9.png']",right,0.835103000048548,left,0
5,2,18,"['goorshell.wav', 'barget.wav', 'fisslin.wav', 'sumbark.wav', 'jeelow.wav', 'chelad.wav']","['Picture6.png', 'Picture3.png', 'Picture7.png']","['Picture6.png', 'Picture3.png', 'Picture8.png']",right,1.9678960000164807,right,1
6,2,19,"['pakrid.wav', 'barget.wav', 'nellby.wav', 'sumbark.wav', 'bimdah.wav', 'chelad.wav']","['Picture4.png', 'Picture5.png', 'Picture2.png']","['Picture5.png', 'Picture4.png', 'Picture2.png']",left,0.4509274999727495,left,1
7,2,20,"['nellby.wav', 'chelad.wav', 'bimdah.wav', 'sumbark.wav', 'pakrid.wav', 'barget.wav']","['Picture5.png', 'Picture2.png', 'Picture4.png']","['Picture2.png', 'Picture5.png', 'Picture4.png']",right,0.7160776000237092,right,1
8,2,21,"['dingep.wav', 'chelad.wav', 'nellby.wav', 'sumbark.wav', 'fisslin.wav', 'barget.wav']","['Picture1.png', 'Picture5.png', 'Picture3.png']","['Picture3.png', 'Picture5.png', 'Picture1.png']",right,1.8845744999707676,right,1
9,2,22,"['haagle.wav', 'barget.wav', 'limeber.wav', 'sumbark.wav', 'fisslin.wav', 'chelad.wav']","['Picture10.png', 'Picture9.png', 'Picture3.png']","['Picture3.png', 'Picture9.png', 'Picture10.png']",left,0.44301430002087727,left,1
10,2,23,"['bimdah.wav', 'chelad.wav', 'jeelow.wav', 'sumbark.wav', 'nellby.wav', 'barget.wav']","['Picture2.png', 'Picture7.png', 'Picture5.png']","['Picture2.png', 'Picture5.png', 'Picture7.png']",right,0.6071172000374645,right,1
11,2,24,"['jeelow.wav', 'barget.wav', 'pakrid.wav', 'sumbark.wav', 'nellby.wav', 'chelad.wav']","['Picture7.png', 'Picture4.png', 'Picture5.png']","['Picture7.png', 'Picture5.png', 'Picture4.png']",right,0.4050817000097595,left,0
0,3,25,"['bimdah.wav', 'barget.wav', 'limeber.wav', 'sumbark.wav', 'goorshell.wav', 'chelad.wav']","['Picture2.png', 'Picture9.png', 'Picture6.png']","['Picture4.png', 'Picture9.png', 'Picture6.png']",right,0.6574900000123307,right,1
1,3,26,"['fisslin.wav', 'chelad.wav', 'rakken.wav', 'sumbark.wav', 'nellby.wav', 'barget.wav']","['Picture3.png', 'Picture8.png', 'Picture5.png']","['Picture2.png', 'Picture8.png', 'Picture5.png']",left,0.7519896000158042,left,1
2,3,27,"['nellby.wav', 'barget.wav', 'pakrid.wav', 'sumbark.wav', 'limeber.wav', 'chelad.wav']","['Picture5.png', 'Picture4.png', 'Picture9.png']","['Picture5.png', 'Picture3.png', 'Picture9.png']",right,0.4691531000426039,right,1
3,3,28,"['dingep.wav', 'barget.wav', 'fisslin.wav', 'sumbark.wav', 'jeelow.wav', 'chelad.wav']","['Picture1.png', 'Picture3.png', 'Picture7.png']","['Picture1.png', 'Picture5.png', 'Picture7.png']",right,0.4449396000127308,right,1
4,3,29,"['nellby.wav', 'barget.wav', 'jeelow.wav', 'sumbark.wav', 'rakken.wav', 'chelad.wav']","['Picture5.png', 'Picture7.png', 'Picture8.png']","['Picture5.png', 'Picture7.png', 'Picture3.png']",right,0.40685430000303313,right,1
5,3,30,"['goorshell.wav', 'chelad.wav', 'pakrid.wav', 'sumbark.wav', 'haagle.wav', 'barget.wav']","['Picture6.png', 'Picture4.png', 'Picture10.png']","['Picture6.png', 'Picture4.png', 'Picture2.png']",left,0.4841543000075035,left,1
6,3,31,"['pakrid.wav', 'chelad.wav', 'haagle.wav', 'sumbark.wav', 'fisslin.wav', 'barget.wav']","['Picture4.png', 'Picture10.png', 'Picture3.png']","['Picture10.png', 'Picture4.png', 'Picture3.png']",right,0.6351694999611937,left,0
7,3,32,"['haagle.wav', 'barget.wav', 'goorshell.wav', 'sumbark.wav', 'pakrid.wav', 'chelad.wav']","['Picture10.png', 'Picture6.png', 'Picture4.png']","['Picture6.png', 'Picture10.png', 'Picture4.png']",left,0.14404929999727756,left,1
8,3,33,"['rakken.wav', 'barget.wav', 'bimdah.wav', 'sumbark.wav', 'jeelow.wav', 'chelad.wav']","['Picture8.png', 'Picture2.png', 'Picture7.png']","['Picture7.png', 'Picture2.png', 'Picture8.png']",right,0.704149299999699,right,1
9,3,34,"['goorshell.wav', 'chelad.wav', 'dingep.wav', 'sumbark.wav', 'haagle.wav', 'barget.wav']","['Picture6.png', 'Picture1.png', 'Picture10.png']","['Picture10.png', 'Picture1.png', 'Picture6.png']",left,0.6936768000014126,left,1
10,3,35,"['jeelow.wav', 'barget.wav', 'haagle.wav', 'sumbark.wav', 'goorshell.wav', 'chelad.wav']","['Picture7.png', 'Picture10.png', 'Picture6.png']","['Picture7.png', 'Picture6.png', 'Picture10.png']",left,0.15303330001188442,left,1
11,3,36,"['limeber.wav', 'barget.wav', 'fisslin.wav', 'sumbark.wav', 'rakken.wav', 'chelad.wav']","['Picture9.png', 'Picture3.png', 'Picture8.png']","['Picture9.png', 'Picture8.png', 'Picture3.png']",left,1.932561599998735,left,1
0,4,37,"['nellby.wav', 'chelad.wav', 'limeber.wav', 'sumbark.wav', 'fisslin.wav', 'barget.wav']","['Picture5.png', 'Picture9.png', 'Picture3.png']","['Picture8.png', 'Picture9.png', 'Picture3.png']",right,0.6740481000160798,right,1
1,4,38,"['pakrid.wav', 'chelad.wav', 'fisslin.wav', 'sumbark.wav', 'dingep.wav', 'barget.wav']","['Picture4.png', 'Picture3.png', 'Picture1.png']","['Picture10.png', 'Picture3.png', 'Picture1.png']",right,0.8181978000211529,right,1
2,4,39,"['goorshell.wav', 'barget.wav', 'bimdah.wav', 'sumbark.wav', 'haagle.wav', 'chelad.wav']","['Picture6.png', 'Picture2.png', 'Picture10.png']","['Picture6.png', 'Picture9.png', 'Picture10.png']",left,0.11797089996980503,left,1
3,4,40,"['dingep.wav', 'chelad.wav', 'goorshell.wav', 'sumbark.wav', 'jeelow.wav', 'barget.wav']","['Picture1.png', 'Picture6.png', 'Picture7.png']","['Picture1.png', 'Picture2.png', 'Picture7.png']",right,0.5798465000116266,right,1
4,4,41,"['bimdah.wav', 'barget.wav', 'nellby.wav', 'sumbark.wav', 'goorshell.wav', 'chelad.wav']","['Picture2.png', 'Picture5.png', 'Picture6.png']","['Picture2.png', 'Picture5.png', 'Picture1.png']",left,0.5383232000167482,left,1
5,4,42,"['jeelow.wav', 'chelad.wav', 'goorshell.wav', 'sumbark.wav', 'pakrid.wav', 'barget.wav']","['Picture7.png', 'Picture6.png', 'Picture4.png']","['Picture7.png', 'Picture6.png', 'Picture5.png']",left,0.6515325999935158,left,1
6,4,43,"['haagle.wav', 'chelad.wav', 'bimdah.wav', 'sumbark.wav', 'limeber.wav', 'barget.wav']","['Picture10.png', 'Picture2.png', 'Picture9.png']","['Picture2.png', 'Picture10.png', 'Picture9.png']",left,0.7270798999816179,left,1
7,4,44,"['rakken.wav', 'barget.wav', 'nellby.wav', 'sumbark.wav', 'dingep.wav', 'chelad.wav']","['Picture8.png', 'Picture5.png', 'Picture1.png']","['Picture5.png', 'Picture8.png', 'Picture1.png']",right,0.023438300006091595,right,1
8,4,45,"['jeelow.wav', 'barget.wav', 'rakken.wav', 'sumbark.wav', 'pakrid.wav', 'chelad.wav']","['Picture7.png', 'Picture8.png', 'Picture4.png']","['Picture4.png', 'Picture8.png', 'Picture7.png']",right,0.1432069000438787,right,1
9,4,46,"['rakken.wav', 'barget.wav', 'jeelow.wav', 'sumbark.wav', 'bimdah.wav', 'chelad.wav']","['Picture8.png', 'Picture7.png', 'Picture2.png']","['Picture2.png', 'Picture7.png', 'Picture8.png']",right,0.44369210000149906,right,1
10,4,47,"['fisslin.wav', 'barget.wav', 'haagle.wav', 'sumbark.wav', 'rakken.wav', 'chelad.wav']","['Picture3.png', 'Picture10.png', 'Picture8.png']","['Picture3.png', 'Picture8.png', 'Picture10.png']",left,5.025186400045641,left,1
11,4,48,"['limeber.wav', 'barget.wav', 'dingep.wav', 'sumbark.wav', 'bimdah.wav', 'chelad.wav']","['Picture9.png', 'Picture1.png', 'Picture2.png']","['Picture9.png', 'Picture2.png', 'Picture1.png']",left,0.8653726999764331,left,1
