,block,trial,audio,Target_image,Foil_image,Target_Location,Response Time,Answer,Accuracy
0,1,1,"['rakken.wav', 'barget.wav', 'fisslin.wav', 'sumbark.wav', 'nellby.wav', 'chelad.wav']","['Picture8.png', 'Picture3.png', 'Picture5.png']","['Picture2.png', 'Picture3.png', 'Picture5.png']",left,0.5503756000543945,left,1
1,1,2,"['pakrid.wav', 'chelad.wav', 'dingep.wav', 'sumbark.wav', 'haagle.wav', 'barget.wav']","['Picture4.png', 'Picture1.png', 'Picture10.png']","['Picture8.png', 'Picture1.png', 'Picture10.png']",left,2.2671138999867253,left,1
2,1,3,"['dingep.wav', 'chelad.wav', 'haagle.wav', 'sumbark.wav', 'goorshell.wav', 'barget.wav']","['Picture1.png', 'Picture10.png', 'Picture6.png']","['Picture1.png', 'Picture9.png', 'Picture6.png']",left,0.38640889996895567,right,0
3,1,4,"['haagle.wav', 'barget.wav', 'limeber.wav', 'sumbark.wav', 'jeelow.wav', 'chelad.wav']","['Picture10.png', 'Picture9.png', 'Picture7.png']","['Picture10.png', 'Picture4.png', 'Picture7.png']",left,0.9097820000024512,left,1
4,1,5,"['limeber.wav', 'barget.wav', 'rakken.wav', 'sumbark.wav', 'goorshell.wav', 'chelad.wav']","['Picture9.png', 'Picture8.png', 'Picture6.png']","['Picture9.png', 'Picture8.png', 'Picture1.png']",right,1.7584636000101455,left,0
5,1,6,"['bimdah.wav', 'barget.wav', 'pakrid.wav', 'sumbark.wav', 'rakken.wav', 'chelad.wav']","['Picture2.png', 'Picture4.png', 'Picture8.png']","['Picture2.png', 'Picture4.png', 'Picture5.png']",right,1.6265499999863096,right,1
6,1,7,"['dingep.wav', 'barget.wav', 'goorshell.wav', 'sumbark.wav', 'limeber.wav', 'chelad.wav']","['Picture1.png', 'Picture6.png', 'Picture9.png']","['Picture6.png', 'Picture1.png', 'Picture9.png']",right,0.23887050000485033,left,0
7,1,8,"['bimdah.wav', 'chelad.wav', 'dingep.wav', 'sumbark.wav', 'rakken.wav', 'barget.wav']","['Picture2.png', 'Picture1.png', 'Picture8.png']","['Picture1.png', 'Picture2.png', 'Picture8.png']",left,0.9349246999481693,left,1
8,1,9,"['fisslin.wav', 'barget.wav', 'nellby.wav', 'sumbark.wav', 'bimdah.wav', 'chelad.wav']","['Picture3.png', 'Picture5.png', 'Picture2.png']","['Picture2.png', 'Picture5.png', 'Picture3.png']",right,0.545837199955713,right,1
9,1,10,"['jeelow.wav', 'barget.wav', 'bimdah.wav', 'sumbark.wav', 'fisslin.wav', 'chelad.wav']","['Picture7.png', 'Picture2.png', 'Picture3.png']","['Picture3.png', 'Picture2.png', 'Picture7.png']",left,1.1127473000087775,right,0
10,1,11,"['nellby.wav', 'chelad.wav', 'haagle.wav', 'sumbark.wav', 'dingep.wav', 'barget.wav']","['Picture5.png', 'Picture10.png', 'Picture1.png']","['Picture5.png', 'Picture1.png', 'Picture10.png']",right,2.5695023000007495,right,1
11,1,12,"['goorshell.wav', 'chelad.wav', 'jeelow.wav', 'sumbark.wav', 'pakrid.wav', 'barget.wav']","['Picture6.png', 'Picture7.png', 'Picture4.png']","['Picture6.png', 'Picture4.png', 'Picture7.png']",right,2.582029999990482,left,0
0,2,13,"['limeber.wav', 'chelad.wav', 'goorshell.wav', 'sumbark.wav', 'haagle.wav', 'barget.wav']","['Picture9.png', 'Picture6.png', 'Picture10.png']","['Picture7.png', 'Picture6.png', 'Picture10.png']",left,0.596728999982588,left,1
1,2,14,"['pakrid.wav', 'barget.wav', 'rakken.wav', 'sumbark.wav', 'bimdah.wav', 'chelad.wav']","['Picture4.png', 'Picture8.png', 'Picture2.png']","['Picture10.png', 'Picture8.png', 'Picture2.png']",left,0.8347689000074752,left,1
2,2,15,"['fisslin.wav', 'barget.wav', 'limeber.wav', 'sumbark.wav', 'dingep.wav', 'chelad.wav']","['Picture3.png', 'Picture9.png', 'Picture1.png']","['Picture3.png', 'Picture6.png', 'Picture1.png']",left,0.9382945999968797,left,1
3,2,16,"['rakken.wav', 'chelad.wav', 'jeelow.wav', 'sumbark.wav', 'limeber.wav', 'barget.wav']","['Picture8.png', 'Picture7.png', 'Picture9.png']","['Picture8.png', 'Picture3.png', 'Picture9.png']",left,1.035066599957645,left,1
4,2,17,"['fisslin.wav', 'barget.wav', 'rakken.wav', 'sumbark.wav', 'dingep.wav', 'chelad.wav']","['Picture3.png', 'Picture8.png', 'Picture1.png']","['Picture3.png', 'Picture8.png', 'Picture9.png']",right,1.8699158999952488,right,1
5,2,18,"['goorshell.wav', 'barget.wav', 'fisslin.wav', 'sumbark.wav', 'jeelow.wav', 'chelad.wav']","['Picture6.png', 'Picture3.png', 'Picture7.png']","['Picture6.png', 'Picture3.png', 'Picture8.png']",right,0.5678362000035122,right,1
6,2,19,"['pakrid.wav', 'barget.wav', 'nellby.wav', 'sumbark.wav', 'bimdah.wav', 'chelad.wav']","['Picture4.png', 'Picture5.png', 'Picture2.png']","['Picture5.png', 'Picture4.png', 'Picture2.png']",left,2.724842700001318,left,1
7,2,20,"['nellby.wav', 'chelad.wav', 'bimdah.wav', 'sumbark.wav', 'pakrid.wav', 'barget.wav']","['Picture5.png', 'Picture2.png', 'Picture4.png']","['Picture2.png', 'Picture5.png', 'Picture4.png']",right,0.690664800000377,right,1
8,2,21,"['dingep.wav', 'chelad.wav', 'nellby.wav', 'sumbark.wav', 'fisslin.wav', 'barget.wav']","['Picture1.png', 'Picture5.png', 'Picture3.png']","['Picture3.png', 'Picture5.png', 'Picture1.png']",right,0.5497579000075348,right,1
9,2,22,"['haagle.wav', 'barget.wav', 'limeber.wav', 'sumbark.wav', 'fisslin.wav', 'chelad.wav']","['Picture10.png', 'Picture9.png', 'Picture3.png']","['Picture3.png', 'Picture9.png', 'Picture10.png']",left,0.04976989998249337,left,1
10,2,23,"['bimdah.wav', 'chelad.wav', 'jeelow.wav', 'sumbark.wav', 'nellby.wav', 'barget.wav']","['Picture2.png', 'Picture7.png', 'Picture5.png']","['Picture2.png', 'Picture5.png', 'Picture7.png']",right,0.6740734999766573,left,0
11,2,24,"['jeelow.wav', 'barget.wav', 'pakrid.wav', 'sumbark.wav', 'nellby.wav', 'chelad.wav']","['Picture7.png', 'Picture4.png', 'Picture5.png']","['Picture7.png', 'Picture5.png', 'Picture4.png']",right,1.0625165999517776,left,0
0,3,25,"['bimdah.wav', 'barget.wav', 'limeber.wav', 'sumbark.wav', 'goorshell.wav', 'chelad.wav']","['Picture2.png', 'Picture9.png', 'Picture6.png']","['Picture4.png', 'Picture9.png', 'Picture6.png']",right,0.3522864000406116,right,1
1,3,26,"['fisslin.wav', 'chelad.wav', 'rakken.wav', 'sumbark.wav', 'nellby.wav', 'barget.wav']","['Picture3.png', 'Picture8.png', 'Picture5.png']","['Picture2.png', 'Picture8.png', 'Picture5.png']",left,0.40490239998325706,left,1
2,3,27,"['nellby.wav', 'barget.wav', 'pakrid.wav', 'sumbark.wav', 'limeber.wav', 'chelad.wav']","['Picture5.png', 'Picture4.png', 'Picture9.png']","['Picture5.png', 'Picture3.png', 'Picture9.png']",right,0.07397969998419285,right,1
3,3,28,"['dingep.wav', 'barget.wav', 'fisslin.wav', 'sumbark.wav', 'jeelow.wav', 'chelad.wav']","['Picture1.png', 'Picture3.png', 'Picture7.png']","['Picture1.png', 'Picture5.png', 'Picture7.png']",right,2.4129130999790505,right,1
4,3,29,"['nellby.wav', 'barget.wav', 'jeelow.wav', 'sumbark.wav', 'rakken.wav', 'chelad.wav']","['Picture5.png', 'Picture7.png', 'Picture8.png']","['Picture5.png', 'Picture7.png', 'Picture3.png']",right,0.43749270000262186,right,1
5,3,30,"['goorshell.wav', 'chelad.wav', 'pakrid.wav', 'sumbark.wav', 'haagle.wav', 'barget.wav']","['Picture6.png', 'Picture4.png', 'Picture10.png']","['Picture6.png', 'Picture4.png', 'Picture2.png']",left,0.4872889000107534,left,1
6,3,31,"['pakrid.wav', 'chelad.wav', 'haagle.wav', 'sumbark.wav', 'fisslin.wav', 'barget.wav']","['Picture4.png', 'Picture10.png', 'Picture3.png']","['Picture10.png', 'Picture4.png', 'Picture3.png']",right,0.6521243000170216,right,1
7,3,32,"['haagle.wav', 'barget.wav', 'goorshell.wav', 'sumbark.wav', 'pakrid.wav', 'chelad.wav']","['Picture10.png', 'Picture6.png', 'Picture4.png']","['Picture6.png', 'Picture10.png', 'Picture4.png']",left,0.22213889996055514,left,1
8,3,33,"['rakken.wav', 'barget.wav', 'bimdah.wav', 'sumbark.wav', 'jeelow.wav', 'chelad.wav']","['Picture8.png', 'Picture2.png', 'Picture7.png']","['Picture7.png', 'Picture2.png', 'Picture8.png']",right,0.39657959999749437,right,1
9,3,34,"['goorshell.wav', 'chelad.wav', 'dingep.wav', 'sumbark.wav', 'haagle.wav', 'barget.wav']","['Picture6.png', 'Picture1.png', 'Picture10.png']","['Picture10.png', 'Picture1.png', 'Picture6.png']",left,0.4441864999826066,left,1
10,3,35,"['jeelow.wav', 'barget.wav', 'haagle.wav', 'sumbark.wav', 'goorshell.wav', 'chelad.wav']","['Picture7.png', 'Picture10.png', 'Picture6.png']","['Picture7.png', 'Picture6.png', 'Picture10.png']",left,0.10444920003646985,left,1
11,3,36,"['limeber.wav', 'barget.wav', 'fisslin.wav', 'sumbark.wav', 'rakken.wav', 'chelad.wav']","['Picture9.png', 'Picture3.png', 'Picture8.png']","['Picture9.png', 'Picture8.png', 'Picture3.png']",left,0.8016709999646991,left,1
0,4,37,"['nellby.wav', 'chelad.wav', 'limeber.wav', 'sumbark.wav', 'fisslin.wav', 'barget.wav']","['Picture5.png', 'Picture9.png', 'Picture3.png']","['Picture8.png', 'Picture9.png', 'Picture3.png']",right,0.1578216000343673,right,1
1,4,38,"['pakrid.wav', 'chelad.wav', 'fisslin.wav', 'sumbark.wav', 'dingep.wav', 'barget.wav']","['Picture4.png', 'Picture3.png', 'Picture1.png']","['Picture10.png', 'Picture3.png', 'Picture1.png']",right,0.30930910003371537,right,1
2,4,39,"['goorshell.wav', 'barget.wav', 'bimdah.wav', 'sumbark.wav', 'haagle.wav', 'chelad.wav']","['Picture6.png', 'Picture2.png', 'Picture10.png']","['Picture6.png', 'Picture9.png', 'Picture10.png']",left,0.45389080001041293,left,1
3,4,40,"['dingep.wav', 'chelad.wav', 'goorshell.wav', 'sumbark.wav', 'jeelow.wav', 'barget.wav']","['Picture1.png', 'Picture6.png', 'Picture7.png']","['Picture1.png', 'Picture2.png', 'Picture7.png']",right,0.6828593999962322,right,1
4,4,41,"['bimdah.wav', 'barget.wav', 'nellby.wav', 'sumbark.wav', 'goorshell.wav', 'chelad.wav']","['Picture2.png', 'Picture5.png', 'Picture6.png']","['Picture2.png', 'Picture5.png', 'Picture1.png']",left,0.21518709999509156,left,1
5,4,42,"['jeelow.wav', 'chelad.wav', 'goorshell.wav', 'sumbark.wav', 'pakrid.wav', 'barget.wav']","['Picture7.png', 'Picture6.png', 'Picture4.png']","['Picture7.png', 'Picture6.png', 'Picture5.png']",left,0.5523210000246763,left,1
6,4,43,"['haagle.wav', 'chelad.wav', 'bimdah.wav', 'sumbark.wav', 'limeber.wav', 'barget.wav']","['Picture10.png', 'Picture2.png', 'Picture9.png']","['Picture2.png', 'Picture10.png', 'Picture9.png']",left,1.172907700005453,left,1
7,4,44,"['rakken.wav', 'barget.wav', 'nellby.wav', 'sumbark.wav', 'dingep.wav', 'chelad.wav']","['Picture8.png', 'Picture5.png', 'Picture1.png']","['Picture5.png', 'Picture8.png', 'Picture1.png']",right,0.3451172999921255,right,1
8,4,45,"['jeelow.wav', 'barget.wav', 'rakken.wav', 'sumbark.wav', 'pakrid.wav', 'chelad.wav']","['Picture7.png', 'Picture8.png', 'Picture4.png']","['Picture4.png', 'Picture8.png', 'Picture7.png']",right,0.0070526000345125794,right,1
9,4,46,"['rakken.wav', 'barget.wav', 'jeelow.wav', 'sumbark.wav', 'bimdah.wav', 'chelad.wav']","['Picture8.png', 'Picture7.png', 'Picture2.png']","['Picture2.png', 'Picture7.png', 'Picture8.png']",right,0.21206140000140294,right,1
10,4,47,"['fisslin.wav', 'barget.wav', 'haagle.wav', 'sumbark.wav', 'rakken.wav', 'chelad.wav']","['Picture3.png', 'Picture10.png', 'Picture8.png']","['Picture3.png', 'Picture8.png', 'Picture10.png']",left,0.2484256000025198,left,1
11,4,48,"['limeber.wav', 'barget.wav', 'dingep.wav', 'sumbark.wav', 'bimdah.wav', 'chelad.wav']","['Picture9.png', 'Picture1.png', 'Picture2.png']","['Picture9.png', 'Picture2.png', 'Picture1.png']",left,0.22324329998809844,left,1
