,block,trial,audio,Target_image,Foil_image,Target_Location,Response_Time,Answer,Accuracy
0,1,1,"['rakken.wav', 'chelad.wav', 'fisslin.wav', 'sumbark.wav', 'nellby.wav', 'barget.wav']","['Picture8.png', 'Picture3.png', 'Picture5.png']","['Picture2.png', 'Picture3.png', 'Picture5.png']",left,0.24709129997063428,right,0
1,1,2,"['pakrid.wav', 'chelad.wav', 'dingep.wav', 'sumbark.wav', 'haagle.wav', 'barget.wav']","['Picture4.png', 'Picture1.png', 'Picture10.png']","['Picture8.png', 'Picture1.png', 'Picture10.png']",left,0.11861409991979599,left,1
2,1,3,"['dingep.wav', 'chelad.wav', 'haagle.wav', 'sumbark.wav', 'goorshell.wav', 'barget.wav']","['Picture1.png', 'Picture10.png', 'Picture6.png']","['Picture1.png', 'Picture9.png', 'Picture6.png']",left,1.1008234999608248,left,1
3,1,4,"['haagle.wav', 'chelad.wav', 'limeber.wav', 'sumbark.wav', 'jeelow.wav', 'barget.wav']","['Picture10.png', 'Picture9.png', 'Picture7.png']","['Picture10.png', 'Picture4.png', 'Picture7.png']",left,0.8335971999913454,right,0
4,1,5,"['limeber.wav', 'chelad.wav', 'rakken.wav', 'barget.wav', 'goorshell.wav', 'sumbark.wav']","['Picture9.png', 'Picture8.png', 'Picture6.png']","['Picture9.png', 'Picture8.png', 'Picture1.png']",right,0.7377679999917746,left,0
5,1,6,"['bimdah.wav', 'chelad.wav', 'pakrid.wav', 'barget.wav', 'rakken.wav', 'sumbark.wav']","['Picture2.png', 'Picture4.png', 'Picture8.png']","['Picture2.png', 'Picture4.png', 'Picture5.png']",right,2.2119930000044405,left,0
6,1,7,"['dingep.wav', 'chelad.wav', 'goorshell.wav', 'sumbark.wav', 'limeber.wav', 'barget.wav']","['Picture1.png', 'Picture6.png', 'Picture9.png']","['Picture6.png', 'Picture1.png', 'Picture9.png']",right,0.8095519000198692,left,0
7,1,8,"['bimdah.wav', 'chelad.wav', 'dingep.wav', 'barget.wav', 'rakken.wav', 'sumbark.wav']","['Picture2.png', 'Picture1.png', 'Picture8.png']","['Picture1.png', 'Picture2.png', 'Picture8.png']",left,1.5181347000179812,right,0
8,1,9,"['fisslin.wav', 'chelad.wav', 'nellby.wav', 'sumbark.wav', 'bimdah.wav', 'barget.wav']","['Picture3.png', 'Picture5.png', 'Picture2.png']","['Picture2.png', 'Picture5.png', 'Picture3.png']",right,0.2505435000639409,left,0
9,1,10,"['jeelow.wav', 'chelad.wav', 'bimdah.wav', 'barget.wav', 'fisslin.wav', 'sumbark.wav']","['Picture7.png', 'Picture2.png', 'Picture3.png']","['Picture3.png', 'Picture2.png', 'Picture7.png']",left,0.723223999957554,right,0
10,1,11,"['nellby.wav', 'chelad.wav', 'haagle.wav', 'barget.wav', 'dingep.wav', 'sumbark.wav']","['Picture5.png', 'Picture10.png', 'Picture1.png']","['Picture5.png', 'Picture1.png', 'Picture10.png']",right,0.7141371000325307,right,1
11,1,12,"['goorshell.wav', 'chelad.wav', 'jeelow.wav', 'barget.wav', 'pakrid.wav', 'sumbark.wav']","['Picture6.png', 'Picture7.png', 'Picture4.png']","['Picture6.png', 'Picture4.png', 'Picture7.png']",right,1.1317611000267789,right,1
0,2,13,"['limeber.wav', 'chelad.wav', 'goorshell.wav', 'barget.wav', 'haagle.wav', 'sumbark.wav']","['Picture9.png', 'Picture6.png', 'Picture10.png']","['Picture7.png', 'Picture6.png', 'Picture10.png']",left,0.3913669999456033,left,1
1,2,14,"['pakrid.wav', 'chelad.wav', 'rakken.wav', 'sumbark.wav', 'bimdah.wav', 'barget.wav']","['Picture4.png', 'Picture8.png', 'Picture2.png']","['Picture10.png', 'Picture8.png', 'Picture2.png']",left,0.34417110006324947,left,1
2,2,15,"['fisslin.wav', 'chelad.wav', 'limeber.wav', 'sumbark.wav', 'dingep.wav', 'barget.wav']","['Picture3.png', 'Picture9.png', 'Picture1.png']","['Picture3.png', 'Picture6.png', 'Picture1.png']",left,0.4217546000145376,left,1
3,2,16,"['rakken.wav', 'chelad.wav', 'jeelow.wav', 'barget.wav', 'limeber.wav', 'sumbark.wav']","['Picture8.png', 'Picture7.png', 'Picture9.png']","['Picture8.png', 'Picture3.png', 'Picture9.png']",left,1.757714300067164,left,1
4,2,17,"['fisslin.wav', 'chelad.wav', 'rakken.wav', 'barget.wav', 'dingep.wav', 'sumbark.wav']","['Picture3.png', 'Picture8.png', 'Picture1.png']","['Picture3.png', 'Picture8.png', 'Picture9.png']",right,1.0545660000061616,right,1
5,2,18,"['goorshell.wav', 'chelad.wav', 'fisslin.wav', 'sumbark.wav', 'jeelow.wav', 'barget.wav']","['Picture6.png', 'Picture3.png', 'Picture7.png']","['Picture6.png', 'Picture3.png', 'Picture8.png']",right,2.0848598999436945,right,1
6,2,19,"['pakrid.wav', 'chelad.wav', 'nellby.wav', 'barget.wav', 'bimdah.wav', 'sumbark.wav']","['Picture4.png', 'Picture5.png', 'Picture2.png']","['Picture5.png', 'Picture4.png', 'Picture2.png']",left,0.8435303999576718,left,1
7,2,20,"['nellby.wav', 'chelad.wav', 'bimdah.wav', 'sumbark.wav', 'pakrid.wav', 'barget.wav']","['Picture5.png', 'Picture2.png', 'Picture4.png']","['Picture2.png', 'Picture5.png', 'Picture4.png']",right,0.4250330999493599,right,1
8,2,21,"['dingep.wav', 'chelad.wav', 'nellby.wav', 'sumbark.wav', 'fisslin.wav', 'barget.wav']","['Picture1.png', 'Picture5.png', 'Picture3.png']","['Picture3.png', 'Picture5.png', 'Picture1.png']",right,0.5183477000100538,right,1
9,2,22,"['haagle.wav', 'chelad.wav', 'limeber.wav', 'sumbark.wav', 'fisslin.wav', 'barget.wav']","['Picture10.png', 'Picture9.png', 'Picture3.png']","['Picture3.png', 'Picture9.png', 'Picture10.png']",left,0.4554860999342054,left,1
10,2,23,"['bimdah.wav', 'chelad.wav', 'jeelow.wav', 'sumbark.wav', 'nellby.wav', 'barget.wav']","['Picture2.png', 'Picture7.png', 'Picture5.png']","['Picture2.png', 'Picture5.png', 'Picture7.png']",right,0.9934388000983745,right,1
11,2,24,"['jeelow.wav', 'chelad.wav', 'pakrid.wav', 'barget.wav', 'nellby.wav', 'sumbark.wav']","['Picture7.png', 'Picture4.png', 'Picture5.png']","['Picture7.png', 'Picture5.png', 'Picture4.png']",right,0.6213365000439808,right,1
0,3,25,"['bimdah.wav', 'chelad.wav', 'limeber.wav', 'sumbark.wav', 'goorshell.wav', 'barget.wav']","['Picture2.png', 'Picture9.png', 'Picture6.png']","['Picture4.png', 'Picture9.png', 'Picture6.png']",right,0.14352929999586195,right,1
1,3,26,"['fisslin.wav', 'chelad.wav', 'rakken.wav', 'sumbark.wav', 'nellby.wav', 'barget.wav']","['Picture3.png', 'Picture8.png', 'Picture5.png']","['Picture2.png', 'Picture8.png', 'Picture5.png']",left,0.4997461000457406,left,1
2,3,27,"['nellby.wav', 'chelad.wav', 'pakrid.wav', 'sumbark.wav', 'limeber.wav', 'barget.wav']","['Picture5.png', 'Picture4.png', 'Picture9.png']","['Picture5.png', 'Picture3.png', 'Picture9.png']",right,0.26299570000264794,right,1
3,3,28,"['dingep.wav', 'chelad.wav', 'fisslin.wav', 'sumbark.wav', 'jeelow.wav', 'barget.wav']","['Picture1.png', 'Picture3.png', 'Picture7.png']","['Picture1.png', 'Picture5.png', 'Picture7.png']",right,0.1784733000677079,right,1
4,3,29,"['nellby.wav', 'chelad.wav', 'jeelow.wav', 'barget.wav', 'rakken.wav', 'sumbark.wav']","['Picture5.png', 'Picture7.png', 'Picture8.png']","['Picture5.png', 'Picture7.png', 'Picture3.png']",right,0.8392471000552177,right,1
5,3,30,"['goorshell.wav', 'chelad.wav', 'pakrid.wav', 'barget.wav', 'haagle.wav', 'sumbark.wav']","['Picture6.png', 'Picture4.png', 'Picture10.png']","['Picture6.png', 'Picture4.png', 'Picture2.png']",left,0.5728148000780493,left,1
6,3,31,"['pakrid.wav', 'chelad.wav', 'haagle.wav', 'barget.wav', 'fisslin.wav', 'sumbark.wav']","['Picture4.png', 'Picture10.png', 'Picture3.png']","['Picture10.png', 'Picture4.png', 'Picture3.png']",right,0.7030106999445707,right,1
7,3,32,"['haagle.wav', 'chelad.wav', 'goorshell.wav', 'sumbark.wav', 'pakrid.wav', 'barget.wav']","['Picture10.png', 'Picture6.png', 'Picture4.png']","['Picture6.png', 'Picture10.png', 'Picture4.png']",left,0.552217600052245,left,1
8,3,33,"['rakken.wav', 'chelad.wav', 'bimdah.wav', 'barget.wav', 'jeelow.wav', 'sumbark.wav']","['Picture8.png', 'Picture2.png', 'Picture7.png']","['Picture7.png', 'Picture2.png', 'Picture8.png']",right,1.569346300093457,right,1
9,3,34,"['goorshell.wav', 'chelad.wav', 'dingep.wav', 'sumbark.wav', 'haagle.wav', 'barget.wav']","['Picture6.png', 'Picture1.png', 'Picture10.png']","['Picture10.png', 'Picture1.png', 'Picture6.png']",left,0.5552403000183403,left,1
10,3,35,"['jeelow.wav', 'chelad.wav', 'haagle.wav', 'sumbark.wav', 'goorshell.wav', 'barget.wav']","['Picture7.png', 'Picture10.png', 'Picture6.png']","['Picture7.png', 'Picture6.png', 'Picture10.png']",left,0.5946633999701589,left,1
11,3,36,"['limeber.wav', 'chelad.wav', 'fisslin.wav', 'barget.wav', 'rakken.wav', 'sumbark.wav']","['Picture9.png', 'Picture3.png', 'Picture8.png']","['Picture9.png', 'Picture8.png', 'Picture3.png']",left,0.6750907999230549,left,1
0,4,37,"['nellby.wav', 'chelad.wav', 'limeber.wav', 'barget.wav', 'fisslin.wav', 'sumbark.wav']","['Picture5.png', 'Picture9.png', 'Picture3.png']","['Picture8.png', 'Picture9.png', 'Picture3.png']",right,0.5568687000777572,right,1
1,4,38,"['pakrid.wav', 'chelad.wav', 'fisslin.wav', 'barget.wav', 'dingep.wav', 'sumbark.wav']","['Picture4.png', 'Picture3.png', 'Picture1.png']","['Picture10.png', 'Picture3.png', 'Picture1.png']",right,0.5974593999562785,right,1
2,4,39,"['goorshell.wav', 'chelad.wav', 'bimdah.wav', 'sumbark.wav', 'haagle.wav', 'barget.wav']","['Picture6.png', 'Picture2.png', 'Picture10.png']","['Picture6.png', 'Picture9.png', 'Picture10.png']",left,0.47899800003506243,left,1
3,4,40,"['dingep.wav', 'chelad.wav', 'goorshell.wav', 'sumbark.wav', 'jeelow.wav', 'barget.wav']","['Picture1.png', 'Picture6.png', 'Picture7.png']","['Picture1.png', 'Picture2.png', 'Picture7.png']",right,0.2573839999968186,right,1
4,4,41,"['bimdah.wav', 'chelad.wav', 'nellby.wav', 'sumbark.wav', 'goorshell.wav', 'barget.wav']","['Picture2.png', 'Picture5.png', 'Picture6.png']","['Picture2.png', 'Picture5.png', 'Picture1.png']",left,0.27951050002593547,left,1
5,4,42,"['jeelow.wav', 'chelad.wav', 'goorshell.wav', 'sumbark.wav', 'pakrid.wav', 'barget.wav']","['Picture7.png', 'Picture6.png', 'Picture4.png']","['Picture7.png', 'Picture6.png', 'Picture5.png']",left,0.1178373999428004,left,1
6,4,43,"['haagle.wav', 'chelad.wav', 'bimdah.wav', 'barget.wav', 'limeber.wav', 'sumbark.wav']","['Picture10.png', 'Picture2.png', 'Picture9.png']","['Picture2.png', 'Picture10.png', 'Picture9.png']",left,1.0996497999876738,left,1
7,4,44,"['rakken.wav', 'chelad.wav', 'nellby.wav', 'sumbark.wav', 'dingep.wav', 'barget.wav']","['Picture8.png', 'Picture5.png', 'Picture1.png']","['Picture5.png', 'Picture8.png', 'Picture1.png']",right,8.774553499999456,right,1
8,4,45,"['jeelow.wav', 'chelad.wav', 'rakken.wav', 'barget.wav', 'pakrid.wav', 'sumbark.wav']","['Picture7.png', 'Picture8.png', 'Picture4.png']","['Picture4.png', 'Picture8.png', 'Picture7.png']",right,2.729867300018668,right,1
9,4,46,"['rakken.wav', 'chelad.wav', 'jeelow.wav', 'barget.wav', 'bimdah.wav', 'sumbark.wav']","['Picture8.png', 'Picture7.png', 'Picture2.png']","['Picture2.png', 'Picture7.png', 'Picture8.png']",right,0.741959200007841,right,1
10,4,47,"['fisslin.wav', 'chelad.wav', 'haagle.wav', 'sumbark.wav', 'rakken.wav', 'barget.wav']","['Picture3.png', 'Picture10.png', 'Picture8.png']","['Picture3.png', 'Picture8.png', 'Picture10.png']",left,0.9612394999712706,left,1
11,4,48,"['limeber.wav', 'chelad.wav', 'dingep.wav', 'sumbark.wav', 'bimdah.wav', 'barget.wav']","['Picture9.png', 'Picture1.png', 'Picture2.png']","['Picture9.png', 'Picture2.png', 'Picture1.png']",left,0.3255916000343859,left,1
